id,timestamp,acc_x,acc_y,acc_z,gyro_x,gyro_y,gyro_z
0,1778230624220,-0.0029286870000000006,0.11251039,0.9959976,0.0015978966999999997,-0.007989483,-0.0010652645
1,1778230624230,-0.0030507155,0.112144305,0.994045135,0.0023968450499999997,-0.009853696,-0.0013315806
2,1778230624240,-0.0019524578799999998,0.11263242,0.99172661,0.0015978967,-0.0079894835,-0.0002663161
3,1778230624250,-0.0013829911199999998,0.11299850666666666,0.99770605,0.0007101763333333333,0.0,0.0007101763
4,1778230624260,-0.0021965152666666666,0.11373067933333332,0.99469598,-0.004261058,0.015446335,-0.0005326322
5,1778230624270,-0.003721872875,0.112937491,0.9930689225,-0.00146473865,0.0126500155,0.0002663161
6,1778230624280,-0.005491288,0.111290105,0.98830982,-0.0002663161,0.00452737395,0.00079894835
7,1778230624290,0.0050641885,0.1131815505,0.989102995,-0.0011984225249999998,0.011717908974999998,0.00146473865
8,1778230624300,-0.013911263,0.11177822,0.9967298000000001,0.0005326322,-0.014381070000000001,0.0010652645
9,1778230624310,-0.01190999358,0.11221752299999999,0.9955095,0.00042610575999999997,-0.0126766469,0.00117179094
10,1778230624320,-0.004087958725,0.11360864875,0.9964857250000001,-0.00039947415,-0.0006657902500000001,0.00119842255
11,1778230624330,-0.001545695826666667,0.11364932666666666,0.9894894666666666,-0.0005326322,0.0017754408333333332,3.33333333447002e-11
12,1778230624340,-0.0033191785959999997,0.113144942,0.99116534,-0.00031957932,0.00021305296000000002,-0.00074568512
13,1778230624350,-0.00414897325,0.1120222775,0.9924588000000001,0.0011984225249999998,0.000932106475,-0.000665790275
14,1778230624360,-0.0031727442250000003,0.11196126249999999,0.9905063000000001,0.001331580575,0.00159789675,-0.00039947415
15,1778230624370,-0.002623615375,0.11287647625,0.9930689,0.0002663161,0.00053263225,0.00053263225
16,1778230624380,-0.0027822524799999996,0.112656826,0.99116528,0.0008522116,-0.0006391586999999999,0.00063915866
17,1778230624390,-0.0030507155,0.112998505,0.9908724250000001,0.000266316125,-0.0010652645,-0.0002663161
18,1778230624400,-0.0030507155,0.11324256,0.991360545,0.000399474175,-0.000932106425,-0.00039947415
19,1778230624410,-0.0029286868999999997,0.112876475,0.9919706699999999,0.001065264475,-0.0002663161,0.0
20,1778230624420,-0.0029286868999999997,0.11251039,0.992458775,0.00026631615,0.0013315806,0.00053263225
21,1778230624430,-0.0033679898399999997,0.112608014,0.99184865,2.000000000682012e-11,0.0012783173999999999,0.0006391586999999999
22,1778230624440,-0.0019524579,0.11275445,0.99136055,0.0005326322,-0.0005326322,0.0
23,1778230624450,-0.0019524579,0.11263242000000001,0.9916046000000001,0.00079894835,0.00053263225,0.00053263225
24,1778230624460,-0.0019524579,0.11251039,0.99184865,0.0010652645,0.0015978967,0.0010652645
25,1778230624470,-0.0033354490666666664,0.11307985999999999,0.99201133,-0.0003550881666666667,0.0003550881666666667,0.0
26,1778230624480,-0.0033191785599999994,0.113389,0.9917998219999999,0.0,0.00074568512,0.0009587380199999999
27,1778230624490,-0.003721872925,0.11287647625,0.9920926999999999,0.00159789675,0.001331580575,0.000399474175
28,1778230624500,-0.003538830175,0.11287648,0.9916046000000001,0.0013315806,0.00079894835,0.0002663161
29,1778230624510,-0.0034168015999999995,0.11314494,0.99194627,-0.00042610582,-0.00031957932,0.0005326322
30,1778230624520,-0.0034168016,0.1130595225,0.9925197875,-0.000266316125,-0.0005326322,-0.0002663161
31,1778230624530,-0.00370967018,0.113437812,0.9921415100000001,0.00021305287999999999,0.00074568512,-0.00074568512
32,1778230624540,-0.0039049159,0.1131815525,0.991482575,-0.0005326322,-0.0010652645,0.0005326322
33,1778230624550,-0.00312393278,0.11319375000000001,0.991946246,-0.00010652643999999999,-0.0002130529,0.0005326322
34,1778230624560,-0.002928687,0.1128764775,0.991726595,-0.00079894835,0.0010652645,0.00079894835
35,1778230624570,-0.0029286870000000006,0.11291715333333334,0.9918486300000001,-0.0001775441,0.0007101763333333333,0.0003550881666666667
36,1778230624580,-0.002928687,0.11324256,0.99233675,0.0005326322,0.0,0.0
37,1778230624590,-0.0032947728,0.11275444500000001,0.9927028250000001,-0.000665790325,0.001997370825,-0.00039947415
38,1778230624600,-0.002928687,0.11299851,0.99136055,-0.000665790275,0.0018642128,0.0014647387
39,1778230624610,-0.00311172975,0.112815465,0.9920926999999999,-0.0005326322,0.0015978967,0.002130529
40,1778230624620,-0.00287987548,0.112608014,0.992190302,0.00117179092,0.0018109496400000001,-0.00031957932
41,1778230624630,-0.0026846298,0.11251039,0.99209267,0.0010652644666666667,0.0017754408333333332,-0.0003550881333333333
42,1778230624640,-0.0024405725,0.11275445,0.99087244,-0.000798948375,0.000266316125,0.0
43,1778230624650,-0.00239176104,0.112998507,0.991214112,-0.00074568512,0.0006391586999999999,0.0015978966599999999
44,1778230624660,-0.00297749824,0.112998507,0.99199508,0.00010652643999999999,0.00074568512,0.00170442314
45,1778230624670,-0.0023917609600000002,0.113144938,0.991653386,0.0005326322,0.00021305287999999999,0.0004261058
46,1778230624680,-0.00268462976,0.113047316,0.991995062,0.00074568512,0.00106526444,0.00021305287999999999
47,1778230624690,-0.0028066584333333333,0.11255106666666666,0.991563925,-0.0007101763333333333,0.0013315806,-0.0003550881333333333
48,1778230624700,-0.0026846298,0.11251039,0.9920926999999999,-0.00159789675,0.00026631615,0.0
49,1778230624710,-0.00287987548,0.11241276600000001,0.99233675,-0.0014913702799999999,-0.00074568512,0.00074568512
50,1778230624720,-0.003172744,0.11226633,0.9916046000000001,0.0002663161,-0.00146473865,0.000266316125
51,1778230624730,-0.0031727439999999995,0.11236395400000002,0.991262914,0.00021305287999999999,2.000000000682012e-11,0.0006391586999999999
52,1778230624740,-0.00287987548,0.11309612799999999,0.992141524,0.0,0.0004261058,0.00138484382
53,1778230624750,-0.002501586825,0.1127544475,0.9919096525,0.0002663161,-0.00053263225,0.0
54,1778230624760,-0.0027334411,0.11280325799999999,0.9915069620000001,0.00010652643999999999,-0.00042610582,-0.0015978967
55,1778230624770,-0.00361204714,0.113388996,0.991214096,0.00031957932,-0.00031957932,0.0009587380199999999
56,1778230624780,-0.00366085875,0.112876475,0.99111646,-0.00053263225,0.00026631615,0.00079894835
57,1778230624790,-0.00297749852,0.11314494,0.9915557740000001,-0.0009587380199999999,0.00085221158,0.00063915868
58,1778230624800,-0.00307512116,0.112949696,0.9914581699999999,-0.0006391586999999999,0.0005326322,-2.000000000682012e-11
59,1778230624810,-0.00327036692,0.112852072,0.9913605499999999,-0.0010652645,0.0005326322,-0.0010652645
60,1778230624820,-0.002379558075,0.11232735,0.991726625,2.5000000008525147e-11,0.0002663161,-0.000399474175
61,1778230624830,-0.00253819536,0.11202228,0.99184865,-0.00021305287999999999,0.00085221158,0.0009587380199999999
62,1778230624840,-0.0034168016,0.11251039,0.9923367500000001,0.0,0.002130529,0.002130529
63,1778230624850,-0.0031239328400000004,0.112656826,0.992190302,0.0,0.00053263228,0.00053263228
64,1778230624860,-0.002928687,0.112559202,0.99170219,0.0,0.00010652646,-0.00010652641999999999
65,1778230624870,-0.002196515175,0.11397473124999999,0.99178763,-0.000798948375,0.0010652644249999998,0.001997370925
66,1778230624880,-0.0021965152,0.11360864749999999,0.99184865,-0.00079894835,0.00106526445,0.0010652645
67,1778230624890,-0.00361204724,0.113047316,0.99184865,-0.0011717909,-2.000000000682012e-11,0.00031957932
68,1778230624900,-0.003904915866666667,0.11324256,0.9923367500000001,-0.0001775441,-0.0014203526333333334,-0.00017754406666666665
69,1778230624910,-0.003465613,0.11324256000000002,0.99238556,0.0005326322,0.00010652641999999999,0.00031957932
70,1778230624920,-0.0034168015999999995,0.113633056,0.99311775,-0.00074568516,-0.00031957932,-0.00031957932
71,1778230624930,-0.0031239328400000004,0.11299850600000001,0.99243439,-0.0010652645,-0.0005326322,-0.0005326322
72,1778230624940,-0.0024405725,0.11421879399999998,0.99111646,-0.00063915866,0.0015978967599999997,0.00031957932
73,1778230624950,-0.0030913919,0.11389338466666667,0.9916045866666666,-0.0005326322,0.0012428085833333334,0.0005326322
74,1778230624960,-0.00361204732,0.11324256400000002,0.9914581659999999,-0.00010652643999999999,0.0006391586999999999,0.00031957932
75,1778230624970,-0.00312393278,0.11172940599999999,0.991653408,0.0013848438,0.00042610575999999997,-0.0008522116
76,1778230624980,-0.003660858675,0.11336459125,0.9920316650000001,0.00079894835,0.0002663161,-0.00026631615
77,1778230624990,-0.003498153983333333,0.11336458916666668,0.99168592,0.0008877204166666666,0.00044386016666666666,-0.0003550881333333333
78,1778230625000,-0.0032215555199999997,0.112852072,0.99160457,0.0002130529,0.0018109496400000001,-0.00010652643999999999
79,1778230625010,-0.00341680125,0.1128764775,0.991726595,0.00013315805,0.001198422575,-0.00013315805
80,1778230625020,-0.0032703670800000003,0.113388996,0.991506944,-0.00042610582,2.000000000682012e-11,0.00010652643999999999
81,1778230625030,-0.0031239328800000002,0.1139259244,0.991262914,-0.0004261058,0.00074568512,-0.00042610582
82,1778230625040,-0.00244057248,0.1130473188,0.9915557660000001,0.00042610575999999997,-0.00117179092,-0.0002130529
83,1778230625050,-0.0026846297333333337,0.11275445,0.9912791633333334,-0.0005326322666666666,-0.0019529849000000001,0.0003550881333333333
84,1778230625060,-0.002928687,0.11294969400000002,0.990628356,-0.0002130529,-0.00021305296000000002,0.00010652643999999999
85,1778230625070,-0.00370967012,0.11265682400000002,0.99184864,-0.0006391586999999999,0.00181094958,-0.00010652643999999999
86,1778230625080,-0.0033191785600000002,0.11324256400000002,0.991897442,-0.0004261058,0.00063915868,-0.00031957932
87,1778230625090,-0.00278225268,0.113437808,0.99160457,0.00031957932,0.0009587380199999999,-0.00021305287999999999
88,1778230625100,-0.00329477285,0.11287647500000002,0.9917266100000001,0.0002663161,0.0007989483499999999,0.0
89,1778230625110,-0.003538830175,0.11305951750000001,0.99184865,-0.000798948375,0.000798948375,0.00039947415
90,1778230625120,-0.00244057248,0.113437808,0.99087237,-0.0010652645,0.0002130529,0.0009587380399999999
91,1778230625130,-0.00234294958,0.11334018400000001,0.9916533700000001,0.0002130529,-0.00031957932,-0.00053263222
92,1778230625140,-0.0028310641,0.11304731999999999,0.99194627,0.0002130529,-0.0018109496400000001,0.0013848438599999998
93,1778230625150,-0.0027456441,0.11299851,0.9907504174999999,-0.00039947415,-0.00053263225,-0.000665790275
94,1778230625160,-0.00307512116,0.11299850999999998,0.9907748200000001,-0.0005326322,0.00213052888,-0.00117179094
95,1778230625170,-0.00200126944,0.11221752600000001,0.991848624,0.00031957932,0.00138484382,-0.00063915866
96,1778230625180,-0.00262361545,0.11385270374999999,0.9924587675000001,0.0002663161,0.0010652645,-0.0005326322
97,1778230625190,-0.0030751212,0.113730674,0.9921415100000001,-0.00031957932,-0.0002130529,0.00010652643999999999
98,1778230625200,-0.00219651512,0.11324256000000002,0.991067682,-0.0022370553199999995,-0.0019174760999999998,0.0018109496400000001
99,1778230625210,-0.0031239327,0.11294969400000002,0.9914581659999999,-0.00138484382,-0.0012783173999999999,0.00085221156
100,1778230625220,-0.00361204732,0.11290088599999999,0.9915557899999999,-0.0017044232,-0.00010652648000000001,0.00021305287999999999
101,1778230625230,-0.0031239328400000004,0.113437812,0.991214096,-0.0002130529,0.00085221158,-0.0006391586999999999
102,1778230625240,-0.0017084008,0.11251039,0.9906283,0.0005326322,0.0010652645,0.0010652645
103,1778230625250,-0.0025626012,0.112998505,0.9917266,0.0,0.0010652645,0.00079894835
104,1778230625260,-0.0030263099200000003,0.11348662000000001,0.991262932,-0.0013848438,-0.00021305285999999998,-0.00031957932
105,1778230625270,-0.0027456441,0.1125714025,0.9912385225,-0.000399474175,0.000665790325,-0.001331580575
106,1778230625280,-0.00224532666,0.11241276600000001,0.99194627,-0.0006391586999999999,0.00074568512,-0.00063915868
107,1778230625290,-0.00239176104,0.112656826,0.99233675,-0.0010652645,0.0005326322,0.0
108,1778230625300,-0.00307512116,0.11236395400000002,0.9915557899999999,-0.0015978967,-0.0005326322,0.0
109,1778230625310,-0.0023917609600000002,0.112852074,0.9913605499999999,-0.00202400254,0.00074568516,-0.0008522116
110,1778230625320,-0.00263581828,0.112852074,0.9920927,-0.00053263228,0.0004261058,-0.00010652648000000001
111,1778230625330,-0.00353883,0.11275445,0.99282485,0.0002663161,0.0,0.0013315806
112,1778230625340,-0.00341680125,0.1133035775,0.991421555,-0.00039947415,0.000798948375,0.00053263225
113,1778230625350,-0.00356323568,0.11348662000000001,0.9910676559999999,-0.0005326322,0.0010652645,0.0
114,1778230625360,-0.0036608586,0.11348662,0.99111646,-0.0005326322,0.0010652645,0.0
115,1778230625370,-0.0031239328800000002,0.112461578,0.99204389,0.0005326322,0.00021305287999999999,-0.00031957932
116,1778230625380,-0.0032215557800000004,0.11241276600000001,0.99175103,0.0005326322,-0.0004261058,-0.00042610575999999997
117,1778230625390,-0.0028310641,0.11299850999999998,0.99175103,-0.00031957932,0.0004261058,0.00042610575999999997
118,1778230625400,-0.002928687,0.11314494,0.9915557899999999,-0.0005326322,0.0010652645,0.0005326322
119,1778230625410,-0.00248938392,0.11280325799999999,0.9913605499999999,-0.00085221158,-0.00053263222,-0.0007456851399999999
120,1778230625420,-0.00180602368,0.11251039,0.9911652780000001,0.0002130529,-0.00031957936,-0.00063915868
121,1778230625430,-0.0021965152799999998,0.113486618,0.9914093359999999,0.0002130529,0.00031957932,0.0004261058
122,1778230625440,-0.0033191786799999998,0.113389,0.9914581699999999,0.00021305285999999998,-0.00042610575999999997,0.00063915866
123,1778230625450,-0.0036120472000000002,0.11299850999999998,0.991946246,-0.00074568516,0.00031957932,-0.00031957932
124,1778230625460,-0.00268462972,0.11377948999999998,0.990921174,-0.00138484382,0.00021305287999999999,-0.0011717909
125,1778230625470,-0.002806658375,0.11324256625,0.9915435625,0.00079894835,0.0011984225249999998,-0.00119842255
126,1778230625480,-0.0030507155,0.112510395,0.991360545,2.5000000008525147e-11,2.5000000008525147e-11,0.0009321064
127,1778230625490,-0.00361204714,0.112608018,0.9910188520000001,-0.00021305287999999999,-0.0021305289200000002,0.00031957936
128,1778230625500,-0.0037828872500000003,0.113364595,0.991238505,0.0,-0.0018642128,0.00053263225
129,1778230625510,-0.0038072929800000003,0.113144942,0.991214096,-0.0008522116,-0.0005326322,-0.00010652641999999999
130,1778230625520,-0.004067620633333334,0.11291715666666667,0.9920926866666667,-3.33333333447002e-11,0.0005326322666666666,-0.00017754406666666665
131,1778230625530,-0.0035632356000000003,0.112852074,0.992287922,-0.00010652643999999999,0.0004261058,-0.00031957932
132,1778230625540,-0.0025870068,0.11294969799999999,0.9911164859999999,-0.00010652643999999999,-0.0017044232,0.00031957932
133,1778230625550,-0.00214770374,0.112852074,0.9908724400000001,-0.00127831736,-0.00085221156,-0.00031957932
134,1778230625560,-0.0029693629833333333,0.11234768333333334,0.99107579,0.00017754404999999998,-0.0005326322,0.00124280855
135,1778230625570,-0.003172744,0.1129985025,0.9916656025,-0.0002663161,-0.0005326322,0.00119842255
136,1778230625580,-0.00280665825,0.112876475,0.99184865,-0.00159789665,-0.00079894835,0.0
137,1778230625590,-0.0028798753999999998,0.112656826,0.9921415100000001,-0.00138484382,0.0006391586999999999,0.0006391586999999999
138,1778230625600,-0.0027822524799999996,0.112461582,0.9916533700000001,0.00042610573999999994,0.0010652645,0.0010652645
139,1778230625610,-0.0023185438500000002,0.112388365,0.99160455,-0.00133158055,0.000665790275,-0.00013315802499999998
140,1778230625620,-0.00280665825,0.11299850500000001,0.9920926849999999,-0.0026631611,0.0005326322,-0.0005326322
141,1778230625630,-0.0033679900799999996,0.112461576,0.99160457,-0.00010652646,-0.00031957932,-0.00010652643999999999
142,1778230625640,-0.0036120472000000002,0.11304731400000001,0.99160457,-0.00117179092,-0.0013848438,0.00127831736
143,1778230625650,-0.0036608585999999997,0.113437808,0.990237874,0.00010652641999999999,0.00010652641999999999,-0.0005326322599999999
144,1778230625660,-0.003465613,0.11329137200000002,0.9910676800000001,0.0005326322,0.00010652643999999999,0.00021305285999999998
145,1778230625670,-0.00396593015,0.1130595225,0.991726625,-0.0015978967,0.0,0.0
146,1778230625680,-0.0036608585,0.11299851,0.991360545,-0.00079894835,-0.0002663161,0.0002663161
147,1778230625690,-0.00278225264,0.11241276600000001,0.991653408,0.0,-0.0009587380399999999,0.0009587380399999999
148,1778230625700,-0.0035388301000000002,0.112876475,0.992214725,-0.00079894835,-0.00053263225,0.0
149,1778230625710,-0.0034168012800000003,0.11348662000000001,0.99199508,-0.0015978967,0.0,-0.0002130529
150,1778230625720,-0.0026846298,0.11324256,0.99136055,0.0005326322,-0.0005326322,0.0
151,1778230625730,-0.00209889228,0.11265682400000002,0.990579582,-0.00010652643999999999,-0.00021305287999999999,0.0006391586999999999
152,1778230625740,-0.00312393286,0.113096126,0.992336788,-0.0013848438,-0.0008522116,0.0010652645
153,1778230625750,-0.00359984435,0.1130595225,0.9919096525,-2.5000000008525147e-11,-0.00146473865,-0.00053263225
154,1778230625760,-0.0031117299,0.11318154750000001,0.99160457,0.001331580575,-0.000399474175,0.00053263225
155,1778230625770,-0.0030913916666666665,0.11307985999999999,0.9911164833333332,-0.0005326322333333333,0.0003550881333333333,0.0014203526333333334
156,1778230625780,-0.0031727439999999995,0.11299850999999998,0.9908724400000001,-0.0015978967,0.0005326322,0.0015978967
157,1778230625790,-0.0023917609600000002,0.11299850999999998,0.991653408,2.000000000682012e-11,-0.00010652643999999999,0.0015978967
158,1778230625800,-0.00292868704,0.113584245,0.9914093359999999,0.00010652648000000001,-0.0005326322,0.00127831738
159,1778230625810,-0.003465613,0.1138283,0.9912628979999999,-0.00042610575999999997,-0.00063915866,0.0004261058
160,1778230625820,-0.0024893838800000003,0.112852072,0.990677202,0.0,-0.0002130529,-0.0004261058
161,1778230625830,-0.00239176104,0.113144938,0.9907748200000001,0.0,-0.00255663472,-0.0017044232
162,1778230625840,-0.00263581834,0.113633056,0.991653408,0.00042610575999999997,-0.00063915868,-4.000000001364024e-11
163,1778230625850,-0.00307512116,0.113535432,0.9914581699999999,-0.00031957932,-0.0008522116,0.00010652643999999999
164,1778230625860,-0.0025870068,0.11329137200000002,0.99175103,-0.0005326322,0.0006391586999999999,0.00042610575999999997
165,1778230625870,-0.003721872875,0.113425605,0.9912995075,-0.0017310548,-0.00013315802499999998,0.0017310548
166,1778230625880,-0.0040025387400000004,0.11304731800000001,0.9915557740000001,-0.00117179092,-0.00021305287999999999,0.0008522116
167,1778230625890,-0.0034656127600000003,0.11290088599999999,0.9915557899999999,0.0007456851399999999,-0.0006391586999999999,0.0
168,1778230625900,-0.00280665825,0.11275445,0.99136055,0.00053263225,-0.00079894835,-0.00079894835
169,1778230625910,-0.0030263097,0.11290088599999999,0.9913605499999999,-0.0009587380399999999,-0.00010652643999999999,0.0013848438599999998
170,1778230625920,-0.0026846296666666668,0.11267309666666665,0.9908723833333334,0.0003550881666666667,-0.0021305289333333334,0.0010652644666666667
171,1778230625930,-0.00302630996,0.11280326199999999,0.9912140620000001,0.00117179094,-0.0024501082799999996,0.0007456851
172,1778230625940,-0.0036608586,0.11373068,0.9925808,-0.0005326322,0.0010652645,-0.0005326322
173,1778230625950,-0.00287987556,0.11334018400000001,0.991799816,0.0024501082799999996,-0.0010652644600000001,0.00031957932
174,1778230625960,-0.0024405725,0.112998505,0.991360515,0.00106526445,-0.00186421285,0.0002663161
175,1778230625970,-0.00239176104,0.11294969799999999,0.992287932,-0.0002130529,-4.000000001364024e-11,0.0
176,1778230625980,-0.002806658375,0.11299851,0.9916656125000001,0.00039947415,-0.0002663161,-0.000798948375
177,1778230625990,-0.0033191786799999998,0.11358424600000001,0.991946246,-0.00117179092,0.00117179092,-0.0002130529
178,1778230626000,-0.0032215555199999997,0.113535432,0.991311702,-0.00031957934,0.0015978967,0.00042610575999999997
179,1778230626010,-0.0034656127600000003,0.11260801599999999,0.990823564,0.0006391586999999999,-0.00031957934,0.0011717909
180,1778230626020,-0.00307512132,0.11221752,0.991409316,-0.0002130529,2.000000000682012e-11,0.00063915868
181,1778230626030,-0.002928687,0.112461576,0.99160457,-0.0009587380399999999,0.0008522116,-0.0004261058
182,1778230626040,-0.00273344124,0.112266336,0.991409354,0.00117179092,0.0,-4.000000001364024e-11
183,1778230626050,-0.003091391633333333,0.11344594666666667,0.9911571416666667,0.0001775441,-0.0003550881333333333,0.0008877204
184,1778230626060,-0.0034168016,0.11251039,0.9925808,0.0005326322,-0.0015978967,0.0005326322
185,1778230626070,-0.0036120472000000002,0.112705638,0.9914093279999999,0.0005326322,-0.00202400254,-0.00031957932
186,1778230626080,-0.0035632358000000004,0.11304731800000001,0.99111646,0.00010652643999999999,-0.0008522116,-0.00031957932
187,1778230626090,-0.0028310641599999997,0.11211990000000001,0.991311732,-0.0009587380399999999,0.00063915866,0.0
188,1778230626100,-0.0034168014,0.112876475,0.9920926999999999,-0.0010652645,0.00013315805,-0.00039947415
189,1778230626110,-0.00329477265,0.11324256,0.9912385175,0.0013315806249999998,0.0,-0.00013315805
190,1778230626120,-0.0034656127600000003,0.11324256000000002,0.9914581659999999,-0.0004261058,-0.00031957932,0.00031957932
191,1778230626130,-0.0034656127600000003,0.113047316,0.9914581659999999,-0.0014913702799999999,-0.000958738,0.00031957932
192,1778230626140,-0.0033679900799999996,0.11373067799999999,0.9910676559999999,0.00031957932,0.0009587380199999999,0.00042610575999999997
193,1778230626150,-0.0032337584,0.11342560375,0.9920316775,-0.0002663161,2.5000000008525147e-11,0.001331580575
194,1778230626160,-0.00278225264,0.11324256000000002,0.99096999,0.00010652643999999999,-0.0005326322,0.0015978967
195,1778230626170,-0.0026846298,0.113437808,0.9912141,0.00010652643999999999,-0.0018109496400000001,0.00031957934
196,1778230626180,-0.0031727442,0.11373067749999999,0.991238505,-0.0002663161,-0.00159789675,0.00053263225
197,1778230626190,-0.00327036692,0.11280325900000002,0.9905307640000001,0.00074568516,-0.0010652645,-0.00021305285999999998
198,1778230626200,-0.00356323568,0.112705638,0.991555788,0.00149137026,-0.0019174760999999998,0.00031957932
199,1778230626210,-0.00341680138,0.112656826,0.991799834,0.0010652644600000001,-0.0018109496400000001,0.00042610575999999997
200,1778230626220,-0.0030263097,0.11304731400000001,0.9919950500000001,-0.0010652645,-0.0005326322,0.0
201,1778230626230,-0.0029774984,0.113437808,0.992483174,0.0006391586999999999,0.00117179092,0.0008522116
202,1778230626240,-0.00273344124,0.11329137200000002,0.9914093279999999,-0.0010652645,-0.0037284256000000003,0.0
203,1778230626250,-0.00385610436,0.112852072,0.991311732,-0.0010652645,0.00010652648000000001,0.00042610575999999997
204,1778230626260,-0.00341680125,0.11275445,0.99190964,0.00053263225,0.000266316125,-0.000665790325
205,1778230626270,-0.0033679900799999996,0.11353543400000002,0.991311702,0.0010652645,-0.00031957932,-0.0010652645
206,1778230626280,-0.00239176112,0.113437808,0.991409326,0.0004261058,0.00010652643999999999,0.0002130529
207,1778230626290,-0.00268462976,0.11324256000000002,0.9919950500000001,0.0008522116,0.0005326322,-0.00021305285999999998
208,1778230626300,-0.0025626011250000002,0.1128764775,0.9911774975,-0.0013315806249999998,-0.000665790325,0.0002663161
209,1778230626310,-0.0034168014333333333,0.11291715666666667,0.9910351199999999,-0.002130529,-0.0007101763,0.0005326322
210,1778230626320,-0.003355786975,0.11299851,0.9918486175,0.000266316125,-0.002130528875,0.0005326322
211,1778230626330,-0.0031727439999999995,0.11299850999999998,0.9919462579999999,2.000000000682012e-11,-0.00202400246,0.00010652643999999999
212,1778230626340,-0.0018060236000000001,0.11280326199999999,0.991653386,-0.0015978967,0.00021305285999999998,-0.0005326322
213,1778230626350,-0.0016595893399999999,0.113144938,0.991799834,-0.0015978967,-0.0015978967599999997,0.00031957932
214,1778230626360,-0.00287987536,0.11304731999999999,0.9912628979999999,-0.00031957934,-0.0004261058,-0.00074568516
215,1778230626370,-0.0033679900799999996,0.112608014,0.9917022120000001,0.0,0.00042610575999999997,0.0006391586999999999
216,1778230626380,-0.0032215557800000004,0.112559202,0.99175103,-0.00021305287999999999,0.00031957932,0.00085221158
217,1778230626390,-0.0032215557800000004,0.1139259252,0.9915557660000001,-0.0009587380399999999,0.0,0.00010652643999999999
218,1778230626400,-0.00244057248,0.11441403479999998,0.992385554,0.0006391586999999999,-0.0017044232,0.0008522116
219,1778230626410,-0.00297749824,0.11368186499999999,0.991799816,-0.00021305285999999998,-4.000000001364024e-11,-0.0006391586999999999
220,1778230626420,-0.0027334411,0.11334018400000001,0.991458158,0.00010652643999999999,0.00021305287999999999,0.00053263222
221,1778230626430,-0.0024405725,0.113144938,0.9914581699999999,0.0007456851,0.0,0.00127831736
222,1778230626440,-0.0027334412,0.11290088599999999,0.99082358,0.00138484382,0.0004261058,0.0
223,1778230626450,-0.0031239325999999996,0.11299850999999998,0.990725992,-0.00021305285999999998,0.0002130529,-0.00042610575999999997
224,1778230626460,-0.002562601083333333,0.11299851,0.9918892983333333,-8.877203333333332e-05,-0.00044386016666666666,0.00124280855
225,1778230626470,-0.003172744325,0.11299851,0.9906283175,-0.000798948375,-0.000932106425,0.000798948325
226,1778230626480,-0.00322155576,0.11309613,0.990725948,-0.00127831738,-0.0006391586999999999,0.000958738
227,1778230626490,-0.002928687,0.113437808,0.9919950500000001,-0.0015978967,-0.0008522116,0.00031957934
228,1778230626500,-0.00237955815,0.113303575,0.991726595,-2.5000000008525147e-11,0.00053263225,0.00039947415
229,1778230626510,-0.002521924933333333,0.11307985999999999,0.9907910833333333,-0.0003550881333333333,-0.0020417568333333334,0.0009764924500000001
230,1778230626520,-0.00305071545,0.11299851,0.992031685,0.0002663161,-0.0018642128,0.000665790275
231,1778230626530,-0.0031727439999999995,0.11299850999999998,0.9925808,0.0005326322,-0.0015978967,0.0005326322
232,1778230626540,-0.003172744,0.11360864875,0.990811405,-0.00053263225,-0.0017310547,-0.00039947415
233,1778230626550,-0.0023917609600000002,0.11329137200000002,0.991653408,-0.0010652645,-0.00053263222,-0.0009587380399999999
234,1778230626560,-0.00329477275,0.1128764775,0.99184865,-0.000665790275,-0.000798948375,-0.0010652645
235,1778230626570,-0.00209889236,0.11236395400000002,0.99184865,-0.0018109496400000001,-0.00063915866,0.00021305285999999998
236,1778230626580,-0.0021965152799999998,0.112461578,0.9917510180000001,-0.00202400254,-0.0007456851,0.00063915866
237,1778230626590,-0.0039049158,0.11353543400000002,0.991409354,-0.0015978967,0.0005326322599999999,0.0010652645
238,1778230626600,-0.00297749844,0.113535432,0.9909700619999999,-0.00031957934,0.0019174760999999998,-0.0006391586999999999
239,1778230626610,-0.0026846298,0.112900884,0.991653408,-0.0008522116,4.000000001364024e-11,-0.00063915866
240,1778230626620,-0.0026846298,0.11275444999999999,0.991653386,0.00053263222,-0.00021305287999999999,-0.00085221158
241,1778230626630,-0.00180602364,0.11275444999999999,0.9917510180000001,-0.00031957934,-0.0006391586999999999,0.0002130529
242,1778230626640,-0.0018060235599999998,0.11294969799999999,0.9912628979999999,0.00010652641999999999,-0.00063915866,-0.00021305285999999998
243,1778230626650,-0.0029286867799999997,0.1139747372,0.991897428,0.00010652643999999999,0.00117179092,-0.00010652643999999999
244,1778230626660,-0.0033191785599999994,0.1133401876,0.991506944,-0.00031957932,-0.0009587379800000001,0.00031957932
245,1778230626670,-0.0034168015999999995,0.113340186,0.9909212439999999,0.0015978967599999997,0.00031957938,0.00010652643999999999
246,1778230626680,-0.00292868704,0.113193752,0.990970048,0.0014913702799999999,2.000000000682012e-11,-0.00021305287999999999
247,1778230626690,-0.0034168016,0.11202228,0.99136055,-0.0014647387,0.0003994742,0.0002663161
248,1778230626700,-0.002684629775,0.11348662125,0.99190964,-0.00053263225,0.00053263225,0.0002663161
249,1778230626710,-0.0024405725,0.113828302,0.991067672,0.0004261058,-0.0012783173999999999,0.0
250,1778230626720,-0.0021965152,0.11287648,0.9908724449999999,0.0,-0.0007989484,-0.00079894835
251,1778230626730,-0.0024405723399999997,0.11260801599999999,0.9911653059999999,0.0,0.000958738,-0.0011717909
252,1778230626740,-0.0029774984,0.112315148,0.991653408,0.0,0.00117179094,-0.0013848438
253,1778230626750,-0.0026358183,0.11304731999999999,0.9921415100000001,-0.0015978966599999999,0.0004261058,0.00031957934
254,1778230626760,-0.00207448655,0.11336459,0.9905063375000001,-0.00106526445,0.0002663161,0.00106526445
255,1778230626770,-0.00234294958,0.112852072,0.99145816,-0.00031957932,0.0018109496400000001,0.0013848438
256,1778230626780,-0.00331917854,0.112608014,0.9915557899999999,0.00010652643999999999,0.00053263228,0.000958738
257,1778230626790,-0.00317274424,0.112656826,0.9913605499999999,0.00085221158,0.0007456851399999999,0.00021305287999999999
258,1778230626800,-0.00307512116,0.113144938,0.9923367500000001,0.0002130529,0.00117179094,-0.0008522116
259,1778230626810,-0.0032947728,0.11324256,0.99184863,0.0002663161,-0.00106526445,-0.00079894835
260,1778230626820,-0.0031239328400000004,0.11309613,0.990970048,0.00021305287999999999,-0.00191747606,0.00042610582
261,1778230626830,-0.00263581828,0.11290088599999999,0.991458164,0.0,-0.00042610582,0.0006391586999999999
262,1778230626840,-0.00297749824,0.11353543400000002,0.990774822,-0.0008522116,-0.00074568516,0.0008522116
263,1778230626850,-0.00278225264,0.11334018400000001,0.9913605240000001,-0.0019174760999999998,-0.0002130529,0.0010652645
264,1778230626860,-0.0037828872,0.11360865,0.9906893975,0.000665790275,-0.0011984225249999998,0.000665790275
265,1778230626870,-0.00359984445,0.11373068,0.99056731,0.00106526445,-0.00053263225,0.0002663161
266,1778230626880,-0.00329477295,0.1134256075,0.99075034,0.000665790275,0.0005326322,0.0
267,1778230626890,-0.0027334412,0.11241276600000001,0.9913117039999999,2.000000000682012e-11,0.000958738,0.0004261058
268,1778230626900,-0.0028310641,0.112461578,0.9912140819999999,0.00010652641999999999,0.00031957934,0.0010652645
269,1778230626910,-0.0033191786799999998,0.112705638,0.99111646,-0.00031957932,-0.0008522116,0.00063915866
270,1778230626920,-0.004332016175,0.112571405,0.99111646,-0.0005326322,0.00013315802499999998,0.000932106425
271,1778230626930,-0.0040879589,0.11299850375,0.9912995075,-0.000798948325,0.00013315802499999998,0.000798948375
272,1778230626940,-0.0022941381199999998,0.113584244,0.9917022020000001,0.0009587380199999999,-0.00063915866,0.0
273,1778230626950,-0.0027822524799999996,0.11329137599999999,0.991165292,0.00063915868,-0.0014913702799999999,-0.00031957932
274,1778230626960,-0.0031727439999999995,0.11348662000000001,0.9908724400000001,0.0,-0.002130529,-0.0005326322
275,1778230626970,-0.00341680138,0.11324256000000002,0.9910676559999999,0.0017044232,0.00010652641999999999,-0.0015978967599999997
276,1778230626980,-0.0032215556399999997,0.11280325799999999,0.99111646,0.00053263228,0.0005326322,-0.00053263228
277,1778230626990,-0.0023429495600000004,0.113291374,0.99111646,0.00074568516,0.00010652643999999999,0.0013848438
278,1778230627000,-0.002013472225,0.1127544475,0.9912995275,0.000665790275,-0.000798948375,-0.0003994742
279,1778230627010,-0.00268462956,0.1135354324,0.9909212000000001,-0.00042610582,-0.0004261058,0.0002130529
280,1778230627020,-0.00258700672,0.11348662359999999,0.99136051,0.0002130529,0.0,0.00010652648000000001
281,1778230627030,-0.00239176104,0.11348662359999999,0.99184865,-0.00042610573999999994,-0.0004261058,0.00010652648000000001
282,1778230627040,-0.00346561284,0.1134378068,0.991067682,-0.00053263222,-0.0002130529,-0.00021305285999999998
283,1778230627050,-0.0032215556399999997,0.11280325799999999,0.9910188520000001,0.0008522116,0.00127831736,0.00074568516
284,1778230627060,-0.00237955815,0.11196126249999999,0.9916656025,-0.00053263225,0.000798948325,0.0010652645
285,1778230627070,-0.00258700688,0.11314494,0.9912628979999999,0.0002130529,0.00021305287999999999,0.0017044232
286,1778230627080,-0.00297749832,0.11319375400000001,0.991262914,-0.0002130529,0.0,0.00276968764
287,1778230627090,-0.0033191785599999994,0.11314494,0.9915069620000001,-0.00074568512,0.0,0.00159789668
288,1778230627100,-0.0032703670399999996,0.11324256000000002,0.99160457,0.00042610582,0.0,0.0011717909
289,1778230627110,-0.00297749832,0.113437808,0.991409326,0.0010652645,0.0008522116,0.0009587380199999999
290,1778230627120,-0.002501586825,0.11391372124999999,0.990933445,-0.00053263225,0.0009321064,0.0
291,1778230627130,-0.0024405725,0.11377948899999998,0.9912629239999999,-0.0006391586999999999,0.00010652643999999999,0.0
292,1778230627140,-0.0034168016,0.11299851,0.99087244,-0.0005326322,0.0010652645,0.0015978967
293,1778230627150,-0.0034168016,0.11299851,0.99087244,-0.0005326322,0.0010652645,0.0015978966999999997
294,1778230627160,-0.00385610436,0.11255920400000001,0.991165302,-0.0002130529,-0.00042610575999999997,0.0005326322
295,1778230627170,-0.0021965152,0.11324256000000002,0.99111646,-0.00042610575999999997,0.00074568516,0.0018109496400000001
296,1778230627180,-0.00258700672,0.11334018400000001,0.9913117039999999,-0.0005326322,0.0005326322599999999,0.00202400254
297,1778230627190,-0.0033557872,0.11348662,0.9910554725,-0.0005326322,-0.000798948325,2.5000000008525147e-11
298,1778230627200,-0.0032703670399999996,0.11304731800000001,0.9908724400000001,-0.0014913702799999999,-0.0011717909,0.00042610582
299,1778230627210,-0.00297749832,0.112559202,0.9910676840000001,-0.0019174760799999999,-0.0011717909,0.0006391586999999999
300,1778230627220,-0.0026846298,0.113242562,0.9911652780000001,-0.0007456851,-0.0013848438,0.0008522116
301,1778230627230,-0.0026846298,0.11329137599999999,0.990725956,-0.000958738,-0.0011717909,0.00085221158
302,1778230627240,-0.0032703670800000003,0.11329137599999999,0.99087241,2.000000000682012e-11,0.0007456851399999999,-0.00010652643999999999
303,1778230627250,-0.0030751213199999997,0.11334018400000001,0.99062834,0.0004261058,-2.000000000682012e-11,-0.0005326322
304,1778230627260,-0.0031239328800000002,0.11309613,0.99043306,-0.00031957932,-0.0004261058,-0.0005326322
305,1778230627270,-0.0032337584,0.11299851,0.99099442,-0.0005326322,-0.00039947415,-0.00013315805
306,1778230627280,-0.00287987536,0.11299850999999998,0.9912140819999999,-0.00042610575999999997,-0.00063915866,0.0
307,1778230627290,-0.00353882995,0.113913723,0.99160457,-0.00039947415,-0.0022636869499999997,-0.00039947415
308,1778230627300,-0.00297749832,0.1131937516,0.9917510180000001,-0.0005326322,-0.0026631611,-0.0005326322
309,1778230627310,-0.0016107778400000002,0.11231514199999999,0.9914581699999999,-0.0013848438,0.00031957938,-0.00010652643999999999
310,1778230627320,-0.0025626011250000002,0.1133645925,0.99136055,-0.00119842255,0.000266316125,-0.0011984225249999998
311,1778230627330,-0.00253819536,0.113535432,0.9913605499999999,-0.0002130529,0.0004261058,-0.00053263222
312,1778230627340,-0.004148973,0.11275445,0.9911164600000001,-0.0015978966999999997,-0.0005326322,0.0005326322
313,1778230627350,-0.00297749844,0.11236395400000002,0.99111646,-0.000958738,-0.00021305287999999999,-0.00010652643999999999
314,1778230627360,-0.00287987556,0.11226633,0.9915069479999999,-0.0005326322,-0.0017044232,-0.00010652643999999999
315,1778230627370,-0.00201347235,0.112449375,0.9908723675,-0.00079894835,-0.0010652645,-0.00053263225
316,1778230627380,-0.0021965152799999998,0.112900882,0.9906283,-0.0006391586999999999,-0.00063915868,-0.00085221158
317,1778230627390,-0.00370967012,0.11270563600000001,0.990433132,0.0,0.0005326322599999999,0.00031957932
318,1778230627400,-0.00273344118,0.112119902,0.991165308,0.0,0.00149137026,0.0005326322
319,1778230627410,-0.00280665825,0.112510395,0.9916046000000001,-0.00039947415,-0.00159789665,0.000932106425
320,1778230627420,-0.0025870068,0.11221752600000001,0.991653386,-0.0013848438,-0.00138484382,0.0002130529
321,1778230627430,-0.0023185438500000002,0.11263242000000001,0.991360515,-0.00119842255,-0.000266316125,-0.00039947415
322,1778230627440,-0.00248938396,0.11324256000000002,0.991262914,-0.0017044232,0.0,-0.00085221158
323,1778230627450,-0.00327036724,0.112461576,0.9915557660000001,-0.0004261058,-0.00127831736,0.0006391586999999999
324,1778230627460,-0.0035632358000000004,0.112852068,0.9917510180000001,0.0,-0.00031957936,-0.00117179086
325,1778230627470,-0.0031117299,0.11324256,0.99166559,0.0,0.00013315805,-0.000665790275
326,1778230627480,-0.0026358183,0.112656822,0.991458158,-0.0006391586999999999,-0.0006391586999999999,0.00031957932
327,1778230627490,-0.0027334412,0.11314494,0.9910676840000001,-0.0010652645,-0.00149137026,0.00010652643999999999
328,1778230627500,-0.0025381953999999997,0.11334018400000001,0.9908724400000001,0.0006391586999999999,-0.00031957934,0.00042610575999999997
329,1778230627510,-0.003355787075,0.11360865,0.9910554549999999,-0.0005326322,-0.0026631611,-0.0005326322
330,1778230627520,-0.002928687,0.11275445,0.99184865,-0.00013315805,-0.000266316125,-0.00013315805
331,1778230627530,-0.0030751212,0.11290088599999999,0.9912629239999999,0.0,0.0011717909,0.0
332,1778230627540,-0.0021965152,0.11202228,0.9908724400000001,-0.0010652645,-0.0026631611,0.0010652645
333,1778230627550,-0.003172744,0.11299851,0.99087244,0.0,-0.0005326322,0.0010652645
334,1778230627560,-0.0023917609600000002,0.11299850999999998,0.991653408,0.0008522116,-0.0009587380399999999,0.00149137026
335,1778230627570,-0.0021965152,0.11263242,0.9912995075,-0.00053263225,0.00013315802499999998,0.000798948325
336,1778230627580,-0.0021965152,0.11251039,0.99111646,-0.0010652645,0.0005326322,0.0005326322
337,1778230627590,-0.002928687,0.113193752,0.99136051,0.00010652643999999999,-0.00063915866,0.00127831736
338,1778230627600,-0.00311172975,0.1127544475,0.99166559,-0.00039947415,-0.00013315805,0.00119842255
339,1778230627610,-0.0034656127600000003,0.112705638,0.9909212220000001,-0.00031957932,0.0008522116,0.0014913703
340,1778230627620,-0.0034168015999999995,0.114462845,0.99160457,0.00042610575999999997,4.000000001364024e-11,0.002130529
341,1778230627630,-0.0030507156999999997,0.11373067749999999,0.9923367350000001,-0.00053263225,-0.00106526445,0.0010652645
342,1778230627640,-0.00346561284,0.11280326199999999,0.9915069479999999,-0.0015978967,0.00010652641999999999,0.0008522116
343,1778230627650,-0.00385610444,0.113144938,0.9907259319999999,0.00010652641999999999,0.00010652643999999999,0.0010652645
344,1778230627660,-0.0039049159,0.1125103875,0.99227575,-0.0002663161,-0.00159789675,0.0010652645
345,1778230627670,-0.00253819534,0.11304731400000001,0.9916534200000001,-0.0009587380399999999,-0.0012783173999999999,0.00149137026
346,1778230627680,-0.0025626011,0.11324256,0.991238505,-0.00053263225,0.0,0.0015978967
347,1778230627690,-0.002928687,0.11275444999999999,0.99038434,0.0,-0.0015978967,0.0005326322
348,1778230627700,-0.002928687,0.112559202,0.99038434,-0.00213052888,-0.00031957934,-0.00031957932
349,1778230627710,-0.0031239325999999996,0.11231514199999999,0.9917510039999999,-0.0009587379800000001,0.00042610575999999997,0.00074568516
350,1778230627720,-0.0031727439999999995,0.112461578,0.9911164859999999,-0.0013848438,-0.00074568516,0.0019174760999999998
351,1778230627730,-0.00258700672,0.11236395400000002,0.9908724400000001,-0.00063915868,-0.00202400246,0.0008522116
352,1778230627740,-0.0027822526400000003,0.112461578,0.9910676559999999,-0.0008522116,-0.00223705542,-0.00042610575999999997
353,1778230627750,-0.00273344124,0.113096126,0.9917022120000001,-0.0002130529,-0.00085221156,-0.00010652643999999999
354,1778230627760,-0.0026846298,0.113633056,0.9912628979999999,0.0005326322,0.0026631611,0.0005326322
355,1778230627770,-0.003172744333333333,0.11210363000000001,0.9917672666666667,-0.0010652645,0.0010652645,0.0015978966999999997
356,1778230627780,-0.003172744325,0.11147314875,0.99190964,-0.000798948375,0.000798948375,0.0009321064
357,1778230627790,-0.0028310641,0.112998504,0.9911652780000001,0.0,-0.00042610575999999997,0.0010652644600000001
358,1778230627800,-0.00273344124,0.11304731999999999,0.9909212439999999,-0.00042610575999999997,-0.0022370553199999995,0.00117179094
359,1778230627810,-0.00287987556,0.11221752600000001,0.9920438879999999,-0.0013848438,-0.00138484382,0.00234358178
360,1778230627820,-0.0031239325999999996,0.112608016,0.99194627,0.0005326322599999999,-0.0010652645,0.0009587379800000001
361,1778230627830,-0.0027822524799999996,0.11294969400000002,0.9914581659999999,0.0006391586999999999,-0.0002130529,0.00138484376
362,1778230627840,-0.00297749824,0.112852072,0.9906771280000001,0.0010652645,0.0010652645,0.0010652645
363,1778230627850,-0.0024405724,0.112571405,0.990811405,-0.0017310547,-0.00053263225,0.000665790275
364,1778230627860,-0.0023998962833333332,0.11312053166666668,0.9922960733333334,-0.0004438601833333333,0.0020417568333333334,0.0009764924500000001
365,1778230627870,-0.002806658375,0.1128764775,0.990933455,-0.0011984225249999998,0.000266316125,0.000266316125
366,1778230627880,-0.0030751212,0.11290088599999999,0.9915557859999999,-0.00031957934,-0.00010652643999999999,0.00042610575999999997
367,1778230627890,-0.0029774984,0.11358424600000001,0.9913605179999999,0.00042610575999999997,0.00042610575999999997,0.0018109496400000001
368,1778230627900,-0.002928687,0.112949696,0.991311732,-0.00074568516,-0.00117179092,0.00170442316
369,1778230627910,-0.002928687,0.11275444999999999,0.9913605499999999,-0.0010652645,-0.0015978967,0.0015978967
370,1778230627920,-0.0031239328800000002,0.112949692,0.99111646,0.0014913702799999999,-2.000000000682012e-11,0.00063915868
371,1778230627930,-0.0031239328800000002,0.11353542999999999,0.9913117039999999,0.0012783173999999999,-0.00042610582,0.0
372,1778230627940,-0.00248938396,0.11280325900000002,0.991799834,0.00042610575999999997,-0.00074568516,0.0
373,1778230627950,-0.0030913919,0.11283580333333333,0.9915232500000001,0.00017754406666666665,-0.0010652645,0.0010652644666666667
374,1778230627960,-0.00260327735,0.113201885,0.9925808416666667,0.0,-0.00017754408333333334,0.0015978966999999997
375,1778230627970,-0.0024405725,0.11251039,0.99087244,0.0005326322,-0.0015978967,-0.0010652645
376,1778230627980,-0.0024405725,0.112949692,0.9911653059999999,-0.0010652645199999999,-0.00127831738,-0.0004261058
377,1778230627990,-0.00205008082,0.11304731999999999,0.99175103,-0.00085221156,-0.00063915866,0.0008522116
378,1778230628000,-0.0021477037400000005,0.112608014,0.9912628979999999,-0.0013848438,0.00031957932,-0.00021305285999999998
379,1778230628010,-0.0035632357599999997,0.11251039,0.9907259319999999,-0.00202400254,-0.00074568516,-0.0005326322
380,1778230628020,-0.00312393278,0.113096126,0.991409316,-0.00085221156,-0.0002130529,0.00074568516
381,1778230628030,-0.00253819536,0.11314494,0.9917022020000001,0.00010652643999999999,-0.0006391586999999999,0.00074568512
382,1778230628040,-0.0019524579,0.11318154750000001,0.99166559,-0.001065264475,0.00053263225,0.00013315805
383,1778230628050,-0.0031239327,0.11294969400000002,0.991458158,-0.00117179094,0.00063915866,0.0
384,1778230628060,-0.00351442446,0.11236395400000002,0.990579582,-0.00063915866,0.0009587380399999999,0.00042610575999999997
385,1778230628070,-0.0034168016,0.11263242000000001,0.9911164975,-0.00013315805,0.0010652645,0.0025300031
386,1778230628080,-0.0032947728,0.11263242000000001,0.99172661,0.00079894835,0.0010652645,0.0018642128
387,1778230628090,-0.0030263098000000003,0.112949692,0.991067672,-0.00031957934,-0.0002130529,0.00085221158
388,1778230628100,-0.0020500809,0.11368186499999999,0.990823612,-0.00063915868,-0.00074568512,0.00010652648000000001
389,1778230628110,-0.0019524579,0.11251039,0.9925808,0.0,0.0010652645,0.0005326322
390,1778230628120,-0.00253819542,0.113486622,0.991214112,-0.00042610575999999997,-0.00021305285999999998,-0.00074568516
391,1778230628130,-0.0026846298,0.1134256075,0.99087244,0.0003994742,-0.000665790275,-0.000798948375
392,1778230628140,-0.00248938396,0.113486622,0.991848624,0.00106526444,-0.00149137026,0.00042610575999999997
393,1778230628150,-0.0030263097,0.11334018400000001,0.9911164859999999,0.00085221158,-0.000958738,-0.00010652643999999999
394,1778230628160,-0.0033191785599999994,0.11251039199999999,0.9916045779999999,0.00138484382,-0.00085221158,0.00042610582
395,1778230628170,-0.00263581832,0.112998504,0.99170219,-0.0013848438599999998,-0.0010652645,0.00149137026
396,1778230628180,-0.0025626011250000002,0.11312053250000001,0.99160457,-0.0017310548,-0.000932106425,0.0011984225249999998
397,1778230628190,-0.003254096733333333,0.11275445,0.9916045700000001,-8.877203333333332e-05,-0.0014203526166666665,0.00044386016666666666
398,1778230628200,-0.0032337584,0.112571405,0.9910554725,0.0,-2.5000000008525147e-11,0.001331580575
399,1778230628210,-0.00375848152,0.11231514199999999,0.9908724400000001,-0.0017044232,-0.00117179092,0.00031957934
400,1778230628220,-0.001561966356,0.11382830120000001,0.9914581439999999,-4.000000001364024e-11,-0.0007456851,0.00042610575999999997
401,1778230628230,-0.0019524580220000001,0.1135354324,0.9917022020000001,0.00042610575999999997,-0.0005326322,0.00031957932
402,1778230628240,-0.00286767275,0.11269343500000001,0.9907504174999999,-0.0011984225249999998,0.0002663161,0.000665790325
403,1778230628250,-0.00248938396,0.113144938,0.991165308,0.00010652641999999999,-0.00117179092,0.0002130529
404,1778230628260,-0.0024405725,0.11324256,0.99136055,0.0005326322,-0.0015978967,0.0
405,1778230628270,-0.00336799004,0.1136330536,0.99165341,0.00021305287999999999,0.0014913702799999999,0.0010652645
406,1778230628280,-0.00258700688,0.11314494,0.99165341,-0.0004261058,0.0010652645199999999,0.00127831738
407,1778230628290,-0.00263581834,0.112608014,0.9913605499999999,0.00021305285999999998,-0.0009587380399999999,0.00245010822
408,1778230628300,-0.002501586825,0.11305951750000001,0.991726625,-0.0002663161,-0.0010652645,0.000665790275
409,1778230628310,-0.00361204722,0.113437808,0.991653386,-0.0013848438,-0.0019174760999999998,0.0017044232
410,1778230628320,-0.00331917838,0.11211990000000001,0.99160457,-0.00031957934,-4.000000001364024e-11,0.00170442316
411,1778230628330,-0.0031239325999999996,0.11207108800000001,0.9915069479999999,-0.0004261058,0.00074568512,0.00138484382
412,1778230628340,-0.0033191786799999998,0.11324256000000002,0.991897428,0.0006391586999999999,0.00063915866,0.00149137026
413,1778230628350,-0.0028310641399999998,0.11309613,0.9920926700000001,0.00074568512,-0.0010652645199999999,0.00127831738
414,1778230628360,-0.0024405725,0.11319375000000001,0.9918974540000001,0.00010652643999999999,-0.0004261058,-0.00021305285999999998
415,1778230628370,-0.002806658375,0.11415777375,0.991482575,0.000798948375,-0.00039947415,-0.0005326322
416,1778230628380,-0.002928687,0.114462845,0.9913605499999999,0.0010652645,-0.0005326322,-0.0005326322
417,1778230628390,-0.00283106408,0.113437808,0.9909700619999999,-0.00053263222,0.0009587380199999999,0.00042610575999999997
418,1778230628400,-0.0028798753999999998,0.112754446,0.9910188520000001,0.0,0.00063915868,-0.00042610582
419,1778230628410,-0.003172744,0.11299851,0.99136055,-0.0011984225249999998,-0.00159789675,0.0009321064
420,1778230628420,-0.0033679900799999996,0.11358424600000001,0.9903842700000001,-0.0007456851,0.00085221156,0.0007456851
421,1778230628430,-0.00329477295,0.1134256075,0.990262225,-0.00039947415,0.0011984225249999998,0.0009321064
422,1778230628440,-0.0027659822,0.11283580333333333,0.9911164666666666,0.0,-0.0017754408333333332,0.00168666875
423,1778230628450,-0.0032337586499999998,0.11263242,0.9906283925,-0.00039947415,-0.002130529,0.000798948325
424,1778230628460,-0.00253819538,0.11324256400000002,0.991116478,-0.0021305289200000002,-0.0008522116,0.00085221158
425,1778230628470,-0.00312393286,0.112949696,0.99160457,-0.00106526444,0.00042610575999999997,0.0002130529
426,1778230628480,-0.0030263099200000003,0.11353543400000002,0.99160457,0.00031957932,-0.00074568516,0.00127831736
427,1778230628490,-0.002196515175,0.1128154625,0.9908723675,0.00013315805,-0.00146473865,0.00119842255
428,1778230628500,-0.0019524579,0.11251039,0.9906283,0.0,-0.0015978966999999997,0.0010652645
429,1778230628510,-0.002867672475,0.1132425625,0.9915435625,-0.00159789675,-0.0015978967,-0.00013315802499999998
430,1778230628520,-0.00280665835,0.11348662,0.9920316650000001,-0.0009321064,-0.000399474175,0.0014647387
431,1778230628530,-0.0026846298,0.11309612799999999,0.9917998219999999,-0.0005326322,-0.0002130529,0.0018109496400000001
432,1778230628540,-0.002501586825,0.11360864875,0.99190964,-0.00013315805,0.00013315802499999998,0.001331580575
433,1778230628550,-0.002989701125,0.11324256625,0.991726595,-0.001997370825,0.000932106425,0.0015978967
434,1778230628560,-0.0027334411,0.112852074,0.9913117039999999,-0.00106526444,-0.0002130529,0.000958738
435,1778230628570,-0.003355787075,0.11275445,0.9912995275,-0.00039947415,-0.000665790275,0.001331580575
436,1778230628580,-0.00280665825,0.11287648,0.9916046000000001,2.5000000008525147e-11,2.5000000008525147e-11,0.0011984225249999998
437,1778230628590,-0.0029286867799999997,0.11241276600000001,0.991067682,0.00031957934,-0.0018109495399999999,0.00127831736
438,1778230628600,-0.0035632356000000003,0.11285207,0.9908724400000001,0.0004261058,-0.0013848437799999999,0.0009587380199999999
439,1778230628610,-0.004148973,0.1140967655,0.9910554549999999,0.000665790275,-0.001065264475,0.0011984225249999998
440,1778230628620,-0.00297749844,0.1136330548,0.991311732,-0.00074568516,-0.00117179094,-0.00010652641999999999
441,1778230628630,-0.0037828873999999997,0.112998505,0.99136055,-0.0010652645,-0.0010652645,0.0
442,1778230628640,-0.0031727439999999995,0.11177822,0.99038434,-0.0015978967,-0.0015978967,0.0005326322
443,1778230628650,-0.002623615375,0.1125103925,0.99038434,-0.000399474175,-0.0015978967,0.000932106425
444,1778230628660,-0.002806658375,0.11312053250000001,0.9916655875,0.00039947415,-0.00119842255,0.000665790275
445,1778230628670,-0.0031239325999999996,0.113437808,0.9922879339999999,-0.00031957932,-0.0010652645,0.0009587380399999999
446,1778230628680,-0.0029286868999999997,0.11373067749999999,0.99197066,0.00026631615,-0.00026631615,0.0018642128
447,1778230628690,-0.00253819542,0.11309612799999999,0.9910188080000001,0.00138484382,0.0014913702799999999,0.00138484376
448,1778230628700,-0.0027334412,0.112217524,0.9900425800000001,0.00063915868,0.0018109496199999998,0.00085221158
449,1778230628710,-0.002928687,0.11299851,0.99184865,-0.000798948375,-0.0003994742,0.000266316125
450,1778230628720,-0.0031239325999999996,0.11319375000000001,0.9912628979999999,0.0006391586999999999,0.00021305285999999998,0.0
451,1778230628730,-0.00268462956,0.112852068,0.99111646,0.00042610582,0.0005326322,0.0004261058
452,1778230628740,-0.00268462956,0.111973464,0.99111646,0.00042610582,-0.00042610582,0.00010652648000000001
453,1778230628750,-0.00375848152,0.11177822,0.9909212439999999,-0.00234358182,0.0014913703,0.00074568516
454,1778230628760,-0.00214770382,0.112363956,0.990286648,0.0,0.0005326322,-0.0010652645
455,1778230628770,-0.0022941381599999996,0.11290088599999999,0.99111648,0.00042610575999999997,-0.00031957932,0.0006391586999999999
456,1778230628780,-0.00253819542,0.11348662359999999,0.9915557899999999,0.0005326322,-0.00031957932,2.000000000682012e-11
457,1778230628790,-0.0026846298,0.1138527085,0.991482575,0.0005326322,0.00039947415,0.0003994742
458,1778230628800,-0.00297749832,0.113584244,0.990774824,0.0005326322,0.000958738,0.0006391586999999999
459,1778230628810,-0.0039537272,0.11387711199999999,0.990970036,-0.0015978967599999997,0.00117179094,0.0
460,1778230628820,-0.0031727442,0.113779491,0.991897428,-0.00170442316,0.00149137026,0.0
461,1778230628830,-0.002928687,0.11373068,0.99209267,-0.0015978967,0.0015978967,0.0
462,1778230628840,-0.0026358183,0.113144936,0.99057958,-0.00042610575999999997,-0.00021305285999999998,0.0009587380399999999
463,1778230628850,-0.00258700688,0.11343780839999999,0.990530716,0.00010652643999999999,-0.0005326322,0.0004261058
464,1778230628860,-0.00327036724,0.1136330548,0.9906283,-0.00031957932,0.00074568516,0.00127831736
465,1778230628870,-0.0032215555199999997,0.11251038799999999,0.990823612,-0.0005326322,-0.00053263222,0.000958738
466,1778230628880,-0.0032703670399999996,0.11285207,0.991165292,-0.00031957932,-0.00127831736,0.00063915866
467,1778230628890,-0.00305071565,0.11299850750000001,0.9903232925000001,-0.0002663161,0.00159789675,-0.00053263225
468,1778230628900,-0.002928687,0.113047316,0.99106767,-0.0005326322,0.00117179092,-0.00074568512
469,1778230628910,-0.002196515175,0.1126934325,0.9905673125000001,0.0002663161,-0.0002663161,0.001065264475
470,1778230628920,-0.00234294958,0.11251039,0.991311696,-0.00042610582,0.00042610582,0.00063915868
471,1778230628930,-0.002623615375,0.11251039,0.991787615,-0.000932106425,0.000798948375,0.000266316125
472,1778230628940,-0.00356323568,0.113291374,0.990774822,-0.00266316116,-0.0008522116,-0.00021305285999999998
473,1778230628950,-0.00327036692,0.11348662000000001,0.9917510039999999,-0.00063915866,0.00053263222,0.0007456851399999999
474,1778230628960,-0.0029774984,0.11348662000000001,0.990921174,0.00063915866,0.00202400254,0.0007456851
475,1778230628970,-0.00273344124,0.11348662000000001,0.9912141,-0.00074568516,4.000000001364024e-11,0.0013848438
476,1778230628980,-0.00297749844,0.113340186,0.9912141,-0.00042610582,0.00074568512,0.00138484382
477,1778230628990,-0.0031727442,0.112559202,0.99160458,-0.00074568516,-0.00031957938,0.0010652645
478,1778230629000,-0.0026032773333333334,0.11283580333333333,0.9911978433333334,-0.0003550881666666667,0.0010652645,0.0024856171
479,1778230629010,-0.0027334412,0.112559202,0.99057958,-0.00031957932,0.0014913703,0.00159789668
480,1778230629020,-0.00351442428,0.112852074,0.9921415080000001,0.00117179092,0.0010652645,0.0005326322
481,1778230629030,-0.0033354490000000003,0.11340527133333334,0.9922553900000001,0.0015978966999999997,0.0010652645,0.0005326322
482,1778230629040,-0.0026846298,0.1134378068,0.9910188659999999,-0.00085221156,0.0017044232,0.00021305285999999998
483,1778230629050,-0.0036608586800000002,0.112461576,0.99048196,-0.00021305287999999999,0.0008522116,-0.00010652643999999999
484,1778230629060,-0.004271001775,0.112449375,0.9918486475,0.0,-0.000798948375,-0.00013315805
485,1778230629070,-0.0026358182399999998,0.11251039,0.99096999,0.0,0.00021305285999999998,0.0
486,1778230629080,-0.0022941381199999998,0.11251039,0.9909212000000001,0.0,0.00074568512,0.00106526444
487,1778230629090,-0.0030263097,0.113291374,0.991946246,-0.0017044232,0.00149137026,0.00053263222
488,1778230629100,-0.00298970125,0.113669665,0.991726595,-0.00186421285,0.00186421285,-0.0002663161
489,1778230629110,-0.0033191786799999998,0.11334018400000001,0.9912140819999999,-0.0007456851,0.0012783173999999999,-0.0005326322
490,1778230629120,-0.0028310641599999997,0.113633056,0.9905307640000001,-0.0009587380399999999,-0.00021305285999999998,0.00031957932
491,1778230629130,-0.0026846298,0.112949696,0.9913605240000001,-0.00149137026,-0.0005326322,0.0022370553199999995
492,1778230629140,-0.00297749832,0.11202227599999999,0.990286688,-0.0015978967,0.00042610582,-0.00021305296000000002
493,1778230629150,-0.0029286868999999997,0.11251038999999999,0.9901402699999999,-0.00106526445,0.00026631615,-0.00026631615
494,1778230629160,-0.0036608586800000002,0.11387711199999999,0.991262928,-0.0009587380399999999,-0.0018109496400000001,0.00031957934
495,1778230629170,-0.0032947728499999997,0.1134866225,0.99136055,-0.0018642128,-0.0007989484,0.0
496,1778230629180,-0.00327036724,0.11299850999999998,0.9907747499999999,-0.00074568512,0.0005326322,0.0
497,1778230629190,-0.0034168015999999995,0.11319375000000001,0.990823612,-0.00031957932,-0.00031957932,0.0
498,1778230629200,-0.0030507156999999997,0.11336459,0.991116495,-0.0005326322,-0.0005326322,0.0
499,1778230629210,-0.00283106412,0.11319375400000001,0.9915069620000001,-0.0005326322,-0.00021305287999999999,-0.0006391586999999999
500,1778230629220,-0.0031239325999999996,0.11241276600000001,0.9912140819999999,-0.00010652643999999999,-0.0008522116,0.0014913703
501,1778230629230,-0.0030751212,0.112656822,0.99111646,-0.00021305287999999999,-0.00085221158,0.0008522116
502,1778230629240,-0.00237955815,0.11324256,0.992214715,0.001065264475,-0.00013315805,0.00013315802499999998
503,1778230629250,-0.0025626011499999997,0.11196125999999999,0.990933455,-0.001198422575,-0.00159789675,-0.000665790325
504,1778230629260,-0.0026846298,0.11251039199999999,0.9907748200000001,-0.00085221156,-4.000000001364024e-11,-0.0002130529
505,1778230629270,-0.00307512116,0.11275444999999999,0.9910676559999999,0.00031957932,0.00010652643999999999,0.00042610575999999997
506,1778230629280,-0.00361204714,0.11290088599999999,0.9915557740000001,0.00021305287999999999,-0.00031957932,0.00021305287999999999
507,1778230629290,-0.003355786975,0.11318154750000001,0.9905673125000001,-0.0011984225249999998,-0.00013315805,0.000798948375
508,1778230629300,-0.0031727439999999995,0.11324256000000002,0.9901402000000001,-0.0015978967,0.0,0.0010652645
509,1778230629310,-0.0021965152,0.11299851,0.99233675,-0.001997370925,-0.001997370825,0.000266316125
510,1778230629320,-0.00239176104,0.11319375000000001,0.990774822,-4.000000001364024e-11,-0.00010652646,-0.00042610575999999997
511,1778230629330,-0.002806658375,0.11360865,0.9907504149999999,0.000932106425,0.0005326322,-0.0005326322
512,1778230629340,-0.00214770372,0.1125592,0.989700968,0.00063915866,0.0005326322,-0.0005326322
513,1778230629350,-0.00370967016,0.11226633,0.99014022,-0.00074568516,-0.00074568516,0.00074568516
514,1778230629360,-0.0026846298,0.11324256,0.9906283,0.0,0.0,0.0010652645
515,1778230629370,-0.00248938396,0.112852072,0.991018828,0.0,-0.0008522116,0.00063915866
516,1778230629380,-0.0024405725,0.11275444999999999,0.99111646,0.0,-0.0010652645,0.0005326322
517,1778230629390,-0.0039049159,0.11348662,0.9906283,-0.0005326322,0.0,0.0005326322
518,1778230629400,-0.00366085875,0.11336459,0.9905063199999999,0.00053263225,0.0,-0.00026631615
519,1778230629410,-0.00286767275,0.11324256,0.9911164975,0.001997370925,0.0,0.00013315802499999998
520,1778230629420,-0.002501586825,0.1125103875,0.9902622875,0.0013315806249999998,0.0011984225249999998,0.00013315805
521,1778230629430,-0.00248938396,0.11251038799999999,0.990335494,0.0008522116,0.0010652644600000001,-0.00010652643999999999
522,1778230629440,-0.00346561284,0.112900884,0.990530694,-0.0008522116,-0.00063915866,0.00031957932
523,1778230629450,-0.0035388301000000002,0.112998505,0.9908723850000001,0.0,-0.00079894835,-0.00026631615
524,1778230629460,-0.002684629775,0.113425605,0.9906893975,0.0010652645,-0.0010652645,-0.0010652645
525,1778230629470,-0.0032215557800000004,0.11329137200000002,0.9919462680000001,-0.00021305285999999998,0.00021305285999999998,-0.0002130529
526,1778230629480,-0.003172744325,0.11293749,0.9919706724999999,2.5000000008525147e-11,0.0002663161,-0.000399474175
527,1778230629490,-0.0030263097,0.112412768,0.990286648,0.00031957934,0.00031957932,-0.00031957934
528,1778230629500,-0.00353882995,0.11305951750000001,0.9916045525,0.00039947415,0.0005326322,0.0
529,1778230629510,-0.00385610444,0.11324256000000002,0.991311702,-0.00202400244,0.00010652643999999999,0.00042610575999999997
530,1778230629520,-0.003498153983333333,0.11222566,0.9907096599999999,-1.66666666723501e-11,0.00044386016666666666,0.0005326322
531,1778230629530,-0.002318543825,0.11202228,0.990811405,-0.000665790325,0.001331580575,0.000932106425
532,1778230629540,-0.00312393286,0.113389,0.9906771280000001,-0.0019174760999999998,0.0015978967,0.0010652645
533,1778230629550,-0.0034168015999999995,0.11373068,0.990481924,-0.00117179092,0.00063915868,0.00010652648000000001
534,1778230629560,-0.0034168016,0.11336459,0.990201235,-0.0005326322,0.0011984225249999998,0.0002663161
535,1778230629570,-0.0032540965333333334,0.11307985999999999,0.9916045666666666,-0.0012428085333333332,0.0001775441,-0.0005326322666666666
536,1778230629580,-0.003172744,0.11354763749999999,0.991970675,-0.000798948325,0.001065264475,0.00013315802499999998
537,1778230629590,-0.00280665825,0.113364595,0.9914825549999999,-0.00079894835,0.0002663161,0.0
538,1778230629600,-0.0030263097,0.11358424600000001,0.9905307640000001,0.00021305285999999998,0.0010652644600000001,-0.0005326322
539,1778230629610,-0.0033191785599999994,0.113437808,0.990530716,-0.00074568516,0.00117179094,-0.00010652643999999999
540,1778230629620,-0.0019524580250000001,0.11324256,0.9913605025000001,-0.000665790275,0.00146473865,0.0
541,1778230629630,-0.0017084007500000001,0.11342560375,0.9912995125,-0.0005326322,0.0015978967,0.0
542,1778230629640,-0.0024405725,0.11324256,0.99038434,0.0003994742,0.001864212875,0.00039947415
543,1778230629650,-0.0031727442,0.112876475,0.9907504,0.00053263225,0.0010652645,0.0002663161
544,1778230629660,-0.00280665835,0.112327345,0.99111646,-0.00039947415,0.0,0.0
545,1778230629670,-0.0018548351399999999,0.113242562,0.991311732,-0.0013848438,-0.0008522116,0.00127831736
546,1778230629680,-0.00262361545,0.11385270624999999,0.991543565,-0.001065264475,-0.00146473865,0.001065264475
547,1778230629690,-0.00273344124,0.112998507,0.991409354,-0.00117179092,-0.00010652646,0.00074568516
548,1778230629700,-0.0026846298,0.11275445,0.99136055,-0.0015978967,0.0005326322,0.0010652645
549,1778230629710,-0.0036608586800000002,0.113144938,0.9907747499999999,-0.000958738,-0.00010652643999999999,0.0004261058
550,1778230629720,-0.00273344118,0.11324256000000002,0.991409316,0.00031957932,0.00031957932,-0.0008522116
551,1778230629730,-0.0019524579,0.11251039,0.99038434,-0.0010652645,-0.0005326322,0.0
552,1778230629740,-0.00273344118,0.113096126,0.9907748200000001,-0.00063915866,-0.0018109496400000001,-0.0008522116
553,1778230629750,-0.00273344124,0.113633056,0.991848624,-0.00021305287999999999,0.00010652641999999999,0.0002130529
554,1778230629760,-0.002928687,0.11299851,0.99160457,0.0010652645,0.0005326322,0.0
555,1778230629770,-0.00370967012,0.112608014,0.990237874,-0.0010652644600000001,0.00010652643999999999,-0.00042610575999999997
556,1778230629780,-0.00351442446,0.112705638,0.9908724079999999,-0.0018109496199999998,-0.00021305287999999999,0.00010652648000000001
557,1778230629790,-0.0034168015999999995,0.112559202,0.99111646,-0.00085221156,-0.00010652643999999999,0.0002130529
558,1778230629800,-0.0027659822,0.11267309666666668,0.9917672666666667,0.0005326322666666666,-0.0007101763333333333,0.0
559,1778230629810,-0.00263581834,0.113144938,0.990335494,-0.0006391586999999999,-0.00063915866,0.00213052888
560,1778230629820,-0.00385610436,0.11324256000000002,0.9904818800000001,-0.00063915866,0.00074568516,0.00181094958
561,1778230629830,-0.00356323588,0.113437808,0.991018828,0.00074568516,-0.0010652644600000001,-0.00010652641999999999
562,1778230629840,-0.00263581832,0.11270563600000001,0.9915069479999999,0.0002130529,-0.0015978967,-0.00010652643999999999
563,1778230629850,-0.00258700688,0.112217524,0.990579548,-0.0006391586999999999,-0.00031957936,0.0
564,1778230629860,-0.002501586825,0.113120535,0.9913605375,0.00013315802499999998,-0.001065264475,-0.0011984225249999998
565,1778230629870,-0.0028310641399999998,0.11329137599999999,0.99184865,0.00010652643999999999,-0.00138484382,-0.0009587380199999999
566,1778230629880,-0.0031239328400000004,0.11299850999999998,0.9915557899999999,0.00074568516,-0.00149137026,-0.00042610575999999997
567,1778230629890,-0.0026846298,0.11275445,0.99160457,-0.0010652645,0.0,0.0005326322
568,1778230629900,-0.0026846298,0.112559202,0.990823554,0.0002130529,-0.0006391586999999999,-0.00010652643999999999
569,1778230629910,-0.00287987556,0.112705638,0.991409316,0.00149137026,-0.00063915866,-0.0013848438
570,1778230629920,-0.0019524580399999999,0.11275444999999999,0.990823554,0.00117179094,-0.0005326322,0.0009587380199999999
571,1778230629930,-0.0022941382,0.113779487,0.9910676500000001,-0.00053263222,0.0007456851399999999,0.0015978967
572,1778230629940,-0.0039049159,0.11202228,0.99111646,0.0015978967,0.0015978967,-0.0005326322
573,1778230629950,-0.00405135016,0.11348661899999998,0.990823564,0.0007456851399999999,0.0007456851399999999,-0.00010652643999999999
574,1778230629960,-0.00297749844,0.113486617,0.991018828,0.00117179092,-0.0018109496400000001,0.0018109496400000001
575,1778230629970,-0.002501586825,0.1128764775,0.9912995275,0.000798948325,-0.0013315806249999998,-0.000266316125
576,1778230629980,-0.00200126948,0.112461578,0.9910676840000001,0.0005326322,-0.0004261058,0.00053263222
577,1778230629990,-0.0020988923200000002,0.11226633,0.99048196,-0.00031957932,-0.00042610575999999997,0.0015978967
578,1778230630000,-0.0024405724,0.11226633,0.990323305,0.00053263225,-0.00039947415,0.00146473865
579,1778230630010,-0.0033679900799999996,0.112852074,0.99267844,0.00031957936,-0.0008522116,-0.00021305285999999998
580,1778230630020,-0.00185483512,0.11416997799999999,0.9917510399999999,-0.0018109496400000001,0.00021305285999999998,-0.00010652643999999999
581,1778230630030,-0.0024405725,0.114218794,0.99111646,-0.0007989484,0.0,0.0010652645
582,1778230630040,-0.0024405725,0.1131937516,0.990970048,0.00021305287999999999,-0.00085221158,0.0018109496199999998
583,1778230630050,-0.0024405725,0.112656826,0.990725956,-0.0009587380199999999,-0.0004261058,0.00031957936
584,1778230630060,-0.002928687,0.11251039,0.99184865,0.0026631611,0.0,0.0
585,1778230630070,-0.0026358183,0.112217524,0.9912629239999999,0.00106526444,0.00031957932,0.0006391586999999999
586,1778230630080,-0.0030263097,0.112998504,0.9910676559999999,-0.00213052888,0.00010652643999999999,0.0010652645
587,1778230630090,-0.002623615375,0.1130595225,0.9914825425,0.0001331581,-0.00039947415,0.000665790275
588,1778230630100,-0.0018548351,0.11299850999999998,0.99160457,0.00063915866,0.00074568516,0.0005326322
589,1778230630110,-0.00244057254,0.11241276600000001,0.990433074,-0.00117179092,-0.00021305285999999998,0.0005326322
590,1778230630120,-0.002501586825,0.1133645925,0.990872395,-0.000399474175,0.001065264475,0.000932106425
591,1778230630130,-0.00263581832,0.11368186799999999,0.990970036,0.00031957934,0.00117179092,0.0009587380399999999
592,1778230630140,-0.0032947728,0.11336459,0.9906283899999999,0.00079894835,-0.00079894835,0.0005326322
593,1778230630150,-0.00287987548,0.11294969400000002,0.9911653059999999,0.0006391586999999999,0.00149137024,0.0005326322
594,1778230630160,-0.00305071545,0.11312053250000001,0.991543565,-0.0017310547,0.0003994742,-0.0002663161
595,1778230630170,-0.0033191785599999994,0.11309613,0.9910188080000001,-0.00074568512,-0.0011717909,-0.0011717909
596,1778230630180,-0.0036120472000000002,0.11241276600000001,0.9939475,-0.0007456851399999999,-0.00255663472,2.000000000682012e-11
597,1778230630190,-0.00229413804,0.114023542,0.9881389800000001,-0.00117179094,-0.00234358188,-0.0014913703
598,1778230630200,-0.0019524579,0.114462845,0.9864794,-0.0010652645,-0.002130529,-0.002130529
599,1778230630210,-0.004393030500000001,0.10919121600000001,0.9966809600000002,-0.00234358188,-0.0049002165,-0.0010652645
600,1778230630220,-0.0028310641,0.113437808,1.00712662,0.0026631611,-0.008415589,-0.00010652648000000001
601,1778230630230,-0.006931225500000001,0.111582976,0.98682102,0.0020240025,-0.00415453128,0.0013848438
602,1778230630240,-0.0028310640000000003,0.11304731999999999,0.99111646,0.00234358178,-0.0009587379800000001,0.0007456851
603,1778230630250,-0.0032947728,0.11299850750000001,0.9899572000000001,0.0010652644249999998,-0.00439421565,0.00039947415
604,1778230630260,-0.00317274424,0.111582977,0.948406462,-0.01874865424,-0.0402669966,0.0
605,1778230630270,-0.01108019876,0.10963051900000001,0.9777909539999999,0.0142745432,-0.0279099282,0.0017044232
606,1778230630280,-0.0091765522,0.10299216039999999,0.96246419,0.009693905999999999,-0.0107591704,0.00255663476
607,1778230630290,-0.014521406499999999,0.1037243365,0.9734833625,-0.0097205385,-0.0057257965,0.001997370875
608,1778230630300,-0.011714748166666665,0.10917494666666666,1.0103156666666668,-0.0028407053333333334,-0.0028407053333333334,0.0008877204
609,1778230630310,-0.034595114625,0.003965930250000003,0.9809881,-0.014647387250000001,0.01917476125,0.01984055095
610,1778230630320,-0.0837116348,-0.17498903459999998,0.93976682,-0.046658582000000004,-0.007030745199999999,0.0477238488
611,1778230630330,-0.09298581,-0.21062139,0.9349833,-0.0628506,-0.026631612,0.06178534
612,1778230630340,0.009469421199999998,-0.21272029200000003,0.8682581,-0.18077537999999999,0.009906959,0.090867056
613,1778230630350,0.031825065599999994,-0.18177383600000002,0.85849584,-0.253852516,0.0354733054,0.096832536
614,1778230630360,-0.0450041566,-0.142773488,0.74896286,-0.51952946,0.048363006,0.201548034
615,1778230630370,-0.13866518416666668,-0.14151252666666667,0.4528888916666667,-0.6168768833333333,0.02538880266666667,0.25078100833333333
616,1778230630380,-0.17259729,-0.10938646,0.24576564000000004,-1.17583884,0.08415588720000002,0.51548149
617,1778230630390,-0.23118323,-0.07089863125,0.20635039500000002,-1.623463,0.08695221,0.7209177375
618,1778230630400,-0.200004915,-0.0650412575,0.235271195,-1.9646139,-0.007456850000000001,0.87458215
619,1778230630410,0.033972771999999984,0.31190514399999997,0.5737298080000001,-2.6944798800000003,-1.8892465480000002,0.9927199999999999
620,1778230630420,1.3903941,0.93010214,4.5172555,-1.57525987,-1.4516892000000001,0.29454565000000005
621,1778230630430,0.4945087774079999,0.150583318,0.79694456,0.392656472,1.36673432,-0.321603352
622,1778230630440,-0.46102414,0.06199054,1.4223657,0.11930961600000001,0.17044232399999998,-0.25630263600000003
623,1778230630450,-0.46102414,0.06199054,1.4223657,-0.04607269,-0.3151851275,-0.184956545825
624,1778230630460,-0.022819352500000004,0.09109436500000001,0.6695100375,-0.06005428525,-0.18495655249999998,-0.001997370875
625,1778230630470,0.12520136599999998,-0.0142041328,0.9627081900000001,-0.0043675842,0.292521626,-0.00617853388
626,1778230630480,-0.024259292000000002,-0.0142529434,1.1434082,-0.009693906200000001,0.014168024000000001,-0.0085221156
627,1778230630490,-0.0039659295,-0.0029897009749999997,1.06884875,0.0003994742999999998,-0.0347542515,-0.000399474175
628,1778230630500,0.036120474,-0.0056133163,1.0340706,0.013209279639999998,0.027057717199999998,0.00500674306
629,1778230630510,0.053692594,-0.0060038083,1.00439316,0.0243945562,0.0226901324,0.00596548104
630,1778230630520,0.05259433475,0.00030507155000000005,1.007224275,0.014247912250000001,0.03262372399999999,0.0061252706
631,1778230630530,0.05442476525,-0.000671157475,1.007163275,0.0143810705,0.04074636625,0.003195793425
632,1778230630540,0.0527163638,-0.000829794664,1.00629686,0.0170442322,0.0302535118,0.00276968764
633,1778230630550,0.053570565,0.0012202862799999999,0.9923368,0.014381070999999999,0.01411475475,0.0018642128
634,1778230630560,0.055791486599999995,0.00248938396,0.9891152200000001,0.0038349521999999996,0.010120012500000001,0.0013848438
635,1778230630570,0.057988004,0.00331917854,0.98833424,0.0002130529,0.019174760000000002,-2.000000000682012e-11
636,1778230630580,0.0552545624,0.00722409438,0.95768062,-0.0010652645,-0.00021305296000000002,-0.0010652645
637,1778230630590,0.060477386,-0.00043930317999999987,1.00170852,0.0002130529,-0.0022370553600000002,0.00053263222
638,1778230630600,0.0627227125,-0.003721873075,1.023698075,0.002796319125,0.0063915866499999995,0.001731054775
639,1778230630610,0.04905550560000001,0.0038072930399999996,0.98628416,-0.003089267,-0.012676647599999999,0.0004261058
640,1778230630620,0.05398546159999999,-4.881151999999991e-05,0.9979989199999999,-0.0023435818000000002,-0.00841558948,-0.00031957932
641,1778230630630,0.051984193,-0.00030507158249999997,0.9977670049999999,-0.0023968450499999997,-0.004261057825,-0.001331580575
642,1778230630640,0.055645052,0.0007321717600000001,0.9957536,0.0015978966999999997,-0.002130529,0.0010652645
643,1778230630650,0.05564505200000001,0.000878606086,0.9897497359999999,-2.000000000682012e-11,0.0007456850599999999,0.0004261058
644,1778230630660,0.0541807115,0.00097622897,0.992702795,-0.0010652645,-0.002530003225,0.000798948375
645,1778230630670,0.051740136,0.00097622897,0.99087244,0.0,-0.0005326322,0.0010652645
646,1778230630680,0.052289262749999996,6.1014312500000014e-05,0.9917876125,-0.0002663161,0.0007989484,0.00053263225
647,1778230630690,0.0536437834,0.00053692596,0.990530694,-0.0013848438,-0.0004261058,0.0
648,1778230630700,0.0536437834,0.000780983202,0.9903842700000001,-0.0013848438,-0.0004261058,0.00010652643999999999
649,1778230630710,0.053936650749999995,0.0007931860624999999,0.9897131375,-0.0005326322,0.0009321064,0.000932106425
650,1778230630720,0.0532532894,0.00073217176,0.9903354759999999,-0.0011717909,-0.0007456851399999999,0.00138484382
651,1778230630730,0.052325871999999995,0.0005857373980000001,0.9900914439999999,-0.00117179094,0.0009587380199999999,0.0007456851
652,1778230630740,0.0533997284,0.001269097698,0.990579572,0.00021305285999999998,-0.00010652641999999999,-0.00074568516
653,1778230630750,0.0533997296,0.0007321717440000001,0.9891152379999999,-0.00042610582,0.00010652643999999999,-0.00010652648000000001
654,1778230630760,0.053204484,0.0007931860375,0.9888589425000001,-0.00146473865,0.000932106425,0.00013315805
655,1778230630770,0.05359497440000001,0.000878606086,0.98945688,-0.0011717909,0.0006391586999999999,0.0004261058
656,1778230630780,0.052813986,0.000341680144,0.98911524,0.00074568516,-0.0008522116,-0.00021305285999999998
657,1778230630790,0.0530580482,0.000634548856,0.988334184,0.00063915866,0.0010652644600000001,-0.0009587380399999999
658,1778230630800,0.052960423500000006,0.000854200365,0.98818773,0.0,0.00053263225,-0.00079894835
659,1778230630810,0.0530092356,0.000829794644,0.9880413539999999,-0.00085221158,-0.00085221158,-0.00021305287999999999
660,1778230630820,0.053326512000000006,0.0004881145,0.988553885,-0.00079894835,-0.0010652645,0.00053263225
661,1778230630830,0.05308245,0.00061014313,0.9884317975000001,-0.0005326322,-0.000665790275,0.0010652645
662,1778230630840,0.053936651999999995,0.00073217176,0.988578266,-0.0009587380399999999,0.00117179092,0.00149137026
663,1778230630850,0.05418071,0.00085420037,0.988431825,-0.00119842255,0.0015978967,0.0015978967
664,1778230630860,0.0533997292,0.000829794648,0.9875044,-0.0007456851,0.00117179094,0.0015978967
665,1778230630870,0.053350917600000006,0.00043930304799999996,0.9876020000000001,0.00010652643999999999,-0.0002130529,0.00031957936
666,1778230630880,0.053253293,0.000341680144,0.98750436,0.00042610575999999997,-0.0010652645,-0.00063915866
667,1778230630890,0.052911612399999995,0.001025040424,0.987455622,0.0009587380199999999,-0.00010652648000000001,-0.00010652648000000001
668,1778230630900,0.0537902196,0.000927417536,0.9885295080000001,0.00031957936,0.00021305287999999999,0.00021305287999999999
669,1778230630910,0.05418071,0.0005491288075,0.9878217,0.0002663161,-0.000798948375,0.00039947415
670,1778230630920,0.054034275799999996,0.000195245796,0.9876020000000001,-0.00031957932,-0.0002130529,0.0018109496400000001
671,1778230630930,0.0527651746,0.00019524579199999998,0.98711392,-0.0005326322,0.0008522116,0.00170442316
672,1778230630940,0.053326507499999995,0.0004881145,0.98794375,-0.0002663161,0.00026631615,0.0002663161
673,1778230630950,0.05398546480000001,0.0008786061080000001,0.9885783,0.00010652643999999999,4.000000001364024e-11,-0.0006391586999999999
674,1778230630960,0.05398546480000001,0.00048811449200000004,0.98818782,-0.00010652643999999999,-0.00010652641999999999,0.00010652648000000001
675,1778230630970,0.053204478,0.000634548856,0.98882238,-0.0009587380399999999,0.0009587380199999999,0.00117179092
676,1778230630980,0.0527651744,0.001122663312,0.988334184,-0.00063915866,0.0007456851,0.00117179094
677,1778230630990,0.053041777000000005,0.00024405724,0.98867591,0.00017754406666666665,-0.0008877204,0.0007101763
678,1778230631000,0.053082452,0.00024405726,0.98867595,0.0,-0.00106526445,0.0
679,1778230631010,0.052569928,0.001122663312,0.98921286,-0.00010652643999999999,-0.0005326322,-0.0013848438
680,1778230631020,0.053253293,0.00024405724,0.988431804,-0.00042610575999999997,0.0015978967599999997,0.0013848438599999998
681,1778230631030,0.05325329520000001,0.00019524579199999998,0.9889687460000001,0.00074568516,-0.0004261058,0.0012783173999999999
682,1778230631040,0.052472305,0.00048811449,0.989164,-0.0026631611,-0.0010652645,-0.0015978966999999997
683,1778230631050,0.052472305,0.0005857373980000001,0.9892616399999999,-0.00223705534,-0.0002130529,-0.0007456851399999999
684,1778230631060,0.05344853940000001,0.00073217176,0.98862714,-0.0015978967,-0.0010652644600000001,0.0013848438
685,1778230631070,0.053692598,0.001317909152,0.9884318999999999,-0.0015978967,-0.0007456851,0.00031957934
686,1778230631080,0.053692598,0.0014643435,0.988285398,-0.000958738,-0.00021305287999999999,0.0
687,1778230631090,0.0533997296,0.0007321717440000001,0.989066352,-0.00021305287999999999,-0.00031957932,-0.00031957932
688,1778230631100,0.052325875200000004,0.000976228996,0.988773478,0.0004261058,-0.00031957932,-0.00010652643999999999
689,1778230631110,0.052838397,0.001281300525,0.98818773,0.000266316125,-0.00159789675,0.000932106425
690,1778230631120,0.053399728800000004,0.000634548832,0.9891640260000001,-0.00127831736,-0.0004261058,-0.0010652644600000001
691,1778230631130,0.053155668,-9.7622898e-05,0.98765088,2.000000000682012e-11,-0.00031957932,-0.000958738
692,1778230631140,0.053350916000000005,0.000292868694,0.98726036,0.00074568512,0.0007456851399999999,-0.0005326322
693,1778230631150,0.05344854,0.000683360282,0.9875532,-0.00031957936,0.0009587380199999999,0.00031957936
694,1778230631160,0.05320448,0.000366085865,0.9870895,-2.5000000008525147e-11,0.0,-0.00079894835
695,1778230631170,0.052765174000000005,0.000341680136,0.98667464,0.0005326322,0.0,-0.0015978967
696,1778230631180,0.0526675514,0.00043930303199999997,0.98638174,-0.00074568516,-0.00042610575999999997,-0.00031957934
697,1778230631190,0.05291160860000001,0.000634548856,0.98662578,-0.0019174760999999998,-0.0013848438,0.0008522116
698,1778230631200,0.05296042,0.00073217176,0.9867234,-0.002130529,-0.0015978967,0.0010652645
699,1778230631210,0.10909359599999999,0.00195245798,1.007712344,-0.00841558894,-0.12431636334,0.018535601500000002
700,1778230631220,0.1461903,0.0024405725,1.0223558,-0.010120012,-0.15499598,0.023435818
701,1778230631230,0.053350917600000006,0.041392111999999995,1.1083128199999999,0.0291882452,-0.0517718534,0.0857537872
702,1778230631240,-0.170168921,0.058390699,0.98092715,0.015446334249999999,-0.01411475375,0.216781315
703,1778230631250,-0.22404456,0.055400997,0.9193637,0.002130529,-0.024501082,0.24660872
704,1778230631260,-0.097281222,-0.032508425199999996,1.1427736,-0.09459547900000001,0.49460226459999995,0.61764036
705,1778230631270,-0.0476887872,-0.0538390296,1.15029058,-0.090227898,0.2218945748,0.682727996
706,1778230631280,0.0159857495,-0.01439937793,1.07092315,0.019441075000000002,-0.110787506,0.65007763
707,1778230631290,0.28286234,-0.004148973,1.1194906,0.12037488,-0.515588,0.62104917
708,1778230631300,0.1373066036,-0.0527651772,0.97159189,0.07563377439999999,-0.33065809,0.587599878
709,1778230631310,0.0735100424,-0.0450529684,0.9816470199999999,0.0481499524,-0.152652394,0.5000351399999999
710,1778230631320,0.076926842,0.009664666400000002,1.01191013,0.0445280532,-0.205169926,0.45880940800000003
711,1778230631330,0.0418802234,0.064040622,0.87352972,0.025459820799999998,-0.1090830764,0.39617186800000004
712,1778230631340,0.22794947580000002,-0.075755366,0.86796522,0.0188551808,-0.023435817999999997,0.382110364
713,1778230631350,0.214379886,-0.037584815199999996,0.9683215199999999,0.0215183416,-0.014594123199999998,0.338008402
714,1778230631360,0.0508127184,0.0036608593999999995,0.98096368,0.025353294,0.0156593868,0.31158985
715,1778230631370,-0.09776933139999999,0.0408551838,0.991018832,0.033236251800000005,0.060826601800000005,0.38733015800000004
716,1778230631380,0.18475133,-0.01952458,0.9237567,0.004261058,0.15819177,0.44900897
717,1778230631390,0.086884377,-0.041245675,1.1301071,0.0853543145,-0.1977397125,0.47098004
718,1778230631400,-0.010982576,-0.06296677,1.3364575,0.1123854,-0.31638354,0.47830373000000004
719,1778230631410,-0.248059794,0.0924488842,0.925172184,0.074035877,-0.033662356399999996,0.7610249299999999
720,1778230631420,0.02611412,0.009078929999999999,0.931468892,0.04271710359999999,-0.0265250846,0.7725297799999999
721,1778230631430,0.174793798,-0.046712554399999995,0.943622968,0.0193878132,0.020453078800000003,0.48160605799999995
722,1778230631440,0.43600828750000004,-0.214465315,0.97995085,-0.03289003925,-0.038482680000000005,-0.08295747
723,1778230631450,0.416800986,-0.20027339,0.97022516,-0.051665325,-0.06870956,-0.20772657
724,1778230631460,0.16766733,-0.030995270000000002,0.9628058,-0.06711166,-0.0010652645,-0.3291667
725,1778230631470,-0.0586225472,-0.0169863844,0.92605082,-0.097791278,0.28474519600000003,-0.24192155399999998
726,1778230631480,-0.01952458,-0.1289842525,0.98916395,-0.166181255,0.3083940625,-0.2736398025
727,1778230631490,-0.08542003875000001,-0.28853666499999997,0.958412825,-0.205729205,0.3459446375,-0.418915235
728,1778230631500,-0.1060184708,-0.35764147399999996,0.9681751200000001,-0.19377161199999998,0.335877886,-0.522192624
729,1778230631510,-0.07376630456,-0.42911364750000003,1.0074683,-0.11664646,0.25193503,-0.7701862
730,1778230631520,-0.026992728944,-0.148582048,0.9769611600000001,-0.0540089064,0.160428828,-0.9957026680000001
731,1778230631530,-0.06858008,0.09567044,0.8642067000000001,-0.07403588,0.06711166,-1.1520835
732,1778230631540,-0.096500239,0.275540636,1.05657268,-0.02908172,-0.05219795199999999,-0.7120227399999999
733,1778230631550,-0.132230219,0.241274992,1.0171329999999998,-0.021837922,-0.13848437,-0.5539375
734,1778230631560,0.513545236,0.18987653799999998,0.9477230799999999,-0.026951190999999996,-0.06434196919999999,-0.514629256
735,1778230631570,0.853102075,0.17797875,0.942671075,-0.03448793675,0.0884169535,-0.5289038075
736,1778230631580,0.2291697425,0.080538895,0.9715918499999999,-0.056991649,0.3382214766666667,-0.5947726533333334
737,1778230631590,0.0352418652,0.054961694000000005,0.98828539,-0.08713863200000001,0.21912490199999998,-0.30913974
738,1778230631600,-0.011714748,0.04881145,0.9842828499999999,-0.09374327,0.21997711,-0.19281286
739,1778230631610,0.17079125999999997,0.043979116,1.001220468,-0.135075532,0.276436128,0.158298298
740,1778230631620,0.2647411125,0.0498486915,1.0024651125,-0.09254485000000001,0.2398176575,0.21638185000000001
741,1778230631630,0.0562796038,0.0035632354000000007,0.98111014,-0.0814927308,0.1972869746,0.21507690200000001
742,1778230631640,0.036974669249999995,-0.0076878035,1.045907275,-0.053662696,0.03928162775,0.156194405875
743,1778230631650,0.21159762,0.015375607,1.0352908,0.004261058,0.048469532,0.0127831735
744,1778230631660,0.07624349039999999,-0.0004881140000000006,1.1474595600000002,0.333853878,-0.584830196,0.009054748
745,1778230631670,0.13921025920000002,0.0402206344,1.026065492,0.15872440400000004,-0.20985710000000002,-0.002663161
746,1778230631680,0.26553428,0.16107778,0.70020026,-0.30146983,0.2759035,-0.029827405
747,1778230631690,0.1680334125,0.094084068,0.798677355,-0.246875029,0.2508697825,-0.020905815125
748,1778230631700,0.0492507514,-0.0377312512,1.0043444099999999,-0.0474042668,0.09843043200000001,0.00404800492
749,1778230631710,0.040208430875,-0.026724268750000002,1.0052718375,0.09534117,-0.21092236,-0.0031957934
750,1778230631720,0.016498269500000003,-0.018792407719999998,1.03421702,0.0069242179999999985,-0.017470335999999996,0.0006391585199999999
751,1778230631730,0.0036120476000000004,-0.00575975096,1.0279203200000002,0.089269162,-0.19142801999999998,-0.0010652645199999999
752,1778230631740,0.0228437576,0.00966466696,0.97491112,-0.017576864,-0.046871636,-0.0031957934
753,1778230631750,0.07069524666666667,0.012528272,0.9157028,-0.0026631615000000004,-0.041012682,-0.0029294772499999996
754,1778230631760,0.0507150992,-0.0102504044,1.00903028,0.006711166039999999,-0.05518069760000001,-0.00138484382
755,1778230631770,0.04753015125,-0.0053692595,0.97988985,0.004926848075,-0.0390153075,0.0009321064
756,1778230631780,0.0475911642,-0.0045882762,0.98028034,0.00223705536,-0.00937432648,0.00117179094
757,1778230631790,0.04889280333333334,-0.0031727441999999995,0.9918486400000001,0.0002663161166666667,-0.0081670276,0.00017754408333333334
758,1778230631800,0.050715098,-0.0017084007759999998,0.979499356,-0.011185276800000001,-0.014807176,-0.0028762139999999998
759,1778230631810,0.056230789,-0.006882414648,1.00873746,-0.0075633776,0.014594122399999998,-0.0026631612
760,1778230631820,0.039634895999999996,-0.004246596,1.00771236,-0.00031957934,0.0005326320000000002,-0.00053263228
761,1778230631830,0.048274524,-0.0044906532999999995,0.9972178899999999,0.0026631611,-0.01438107,0.0005326322
762,1778230631840,0.0539366525,-0.00555230245,0.9946553124999999,-0.0035952675499999996,0.01784317945,-0.00146473865
763,1778230631850,0.051984194,-0.00629667694,0.99419164,-0.00479369,0.00841558948,-0.0024501082599999997
764,1778230631860,0.0534485376,-0.00619905412,0.9900914399999999,-0.0022370553199999995,0.028549086999999994,-0.00117179092
765,1778230631870,0.0440279276,-0.00629667666,1.0121542099999998,0.013102752759999997,0.0129962258,0.00117179092
766,1778230631880,0.0529604224,-0.0032215556,0.970957344,0.0050067429399999995,-0.0015978966000000001,-0.0019174761200000002
767,1778230631890,0.0515448904,-0.0133743361,1.0037098060000003,0.005432848579999999,0.012889700999999998,-0.0017044232
768,1778230631900,0.0481280884,-0.013471959,1.01322804,0.0071372718,-0.0064981122,-0.00010652648000000001
769,1778230631910,0.0433445652,-0.0031239328400000004,0.9986822400000002,0.0056459016,-0.0245010822,0.0011717909
770,1778230631920,0.0492019398,-0.0034168015999999995,0.99853584,0.00383495204,-0.0127831736,-2.000000000682012e-11
771,1778230631930,0.05180114825,-0.00359984435,0.99227575,0.0031957934,0.0209058145,-0.000665790275
772,1778230631940,0.045638703999999995,-0.0035144243999999996,0.99345938,0.00362189916,0.02545982,0.00031957932
773,1778230631950,0.038219364,-0.001269097728,0.9968762200000001,0.00276968764,0.006285060100000001,0.00021305287999999999
774,1778230631960,0.053692598,0.0026846298,0.9349833000000001,-0.0314253,0.025566347,-0.0010652645
775,1778230631970,0.0495924332,-0.0033679900400000002,0.9878949,-0.034834147999999995,0.043888895000000004,-0.00234358178
776,1778230631980,0.045248211999999996,-0.009176552599999999,1.02630952,-0.0190682336,0.039947418400000004,-0.0035153726999999995
777,1778230631990,0.0448089074,-0.00732171722,1.00058588,-0.0068176924,0.028442561999999998,-0.00202400248
778,1778230632000,0.040635529999999996,-0.0041489731,0.99282485,-0.006657903,0.0167779155,-0.0021305289
779,1778230632010,0.041245673,-0.0043930304,1.0155222,0.020772656,-0.03888215,-0.0005326322
780,1778230632020,0.043523541666666665,-0.0029286869333333336,0.9969738,0.020772656,-0.041278997,-0.0005326322
781,1778230632030,0.073949344,-0.010494461,1.006004,0.025033713999999995,-0.05699164799999999,-0.01917476
782,1778230632040,0.308610376,-0.15015622025,0.990445295,0.030626353,-0.0889495845,-0.3175819775
783,1778230632050,0.38683072,-0.19671014,0.98525906,0.032490566,-0.09960223,-0.41705105
784,1778230632060,0.0786352424,-0.15219411,1.00024418,0.042290997799999994,-0.028868668000000004,-0.49044776399999995
785,1778230632070,-0.2814956254,-0.036901458000000005,1.0275786,0.1153681428,0.237660493,-0.281762454
786,1778230632080,-0.322057948,0.11329138000000001,1.0777568,0.166074726,0.32394690000000004,-0.1034371808
787,1778230632090,-0.29530928,0.19500175,1.1075318,0.18801917,0.3392867,-0.018642128
788,1778230632100,-0.29530928,0.19500175,1.1075318,0.18801917,0.3392867,-0.018642128
789,1778230632110,-0.29530928,0.19500175,1.1075318,0.18801917,0.3392867,-0.018642128
790,1778230632120,-0.13252309,0.23868799,1.0111293,0.18801917,0.3392867,-0.018642128
791,1778230632130,-0.13252309,0.23868799,1.0111293,0.18002969,0.16724652,0.05912218
792,1778230632140,-0.13252309,0.23868799,1.0111293,0.18002969,0.16724652000000004,0.05912218
793,1778230632150,-0.13252309,0.23868799,1.0111293,0.18002969,0.16724652,0.05912218
794,1778230632160,-0.13252309,0.23868799,1.0111293,0.18002969,0.16724652,0.05912218
795,1778230632170,-0.042368340000000004,0.05667009199999999,0.9799387100000001,0.1027980186,0.044634577800000005,0.126979524
796,1778230632180,0.09664667,-0.06687169,0.9989263000000002,0.02130529,0.002130529,0.24501082
797,1778230632190,0.09664667,-0.06687169,0.9989263000000002,0.050706588399999995,-0.1891909662,0.144023752
798,1778230632200,0.011275443800000002,-0.06160005040000001,1.04446738,0.056459016400000006,-0.244052086,0.095980326
799,1778230632210,-0.045638707,-0.058085624,1.0748281,0.05805691300000001,-0.23702134,0.118776985
800,1778230632220,0.07092303920000001,-0.0293844923,1.02123316,0.0532632232,-0.258113578,0.050387008
801,1778230632230,0.100014664,0.011861183400000001,0.906135776,0.05006743,-0.27217507,0.00479369
802,1778230632240,0.08566409,0.029042814,0.8991068799999999,0.07816378,-0.17829864,-0.1037301325
803,1778230632250,0.10372432000000001,0.031483386,0.9449895999999999,-0.036645092000000004,-0.005965482000000003,-0.46125952000000003
804,1778230632260,0.10528629199999999,-0.0497388668,1.02445472,-0.019387810400000004,-0.0323840388,-0.428875472
805,1778230632270,-0.0451505925,0.018060232499999995,1.13059525,0.051132694,-0.65194184,-0.3861583800000001
806,1778230632280,-0.19597797,0.106164895,1.2168695,0.0501739562,-0.8779909719999999,-0.383069112
807,1778230632290,0.12422514,0.04881145,1.193684,0.046339005,-1.7821874999999998,-0.37071204
808,1778230632300,0.078830495,0.0134231495,1.1243718,0.048469532,-2.5033715,-0.46072689999999994
809,1778230632310,0.10147901099999998,0.014789869899999999,1.02362492,0.024501082,-2.503904,-0.46019423000000004
810,1778230632320,0.09981941800000001,-0.0002440565999999998,0.84072841,-0.0215183428,-2.2778549200000002,-0.46424224199999997
811,1778230632330,0.09801339,0.029335681599999996,0.75228205,-0.09406285,-1.6207999000000002,-0.496200204
812,1778230632340,0.10006347,0.05588911,0.76341105,-0.09640643,-1.4088123,-0.5134575
813,1778230632350,0.1413091475,0.04716406325,0.7909285025,-0.083356941,-1.2118715174999999,-0.5097290675
814,1778230632360,0.24649782,0.016839951,0.8607899,-0.024678625666666665,-0.7546511116666667,-0.5114157116666667
815,1778230632370,0.24166548800000004,0.022404456,0.87221178,-0.06870956,-0.55766594,-0.45593318
816,1778230632380,0.22233616,0.044662476,0.9178993,-0.06870956,-0.55766594,-0.45593318
817,1778230632390,0.240542818,0.036071662,0.8735785,-0.07669904200000001,-0.49758502600000004,-0.43356262799999995
818,1778230632400,0.24893838499999998,0.030629186000000003,0.8428517000000001,-0.10865697,-0.25726137,-0.34408042
819,1778230632410,0.260165,0.029774985999999996,0.8463905,-0.14871091399999997,-0.017363809999999997,-0.31467912400000003
820,1778230632420,0.25313618,0.01405769728,0.85917914,-0.15180019,0.21944448,-0.3222425
821,1778230632430,0.2443013,0.018304294,0.9557282299999998,-0.10972224068,0.47691889200000004,-0.352922118
822,1778230632440,0.26641288999999996,0.004393030599999999,1.000537112,-0.0031957934,0.7419567,-0.37763625
823,1778230632450,0.302631006,-0.0082003238,1.0648218,0.054754591199999994,0.5562811,-0.368368444
824,1778230632460,0.294089,0.025381953000000002,1.0457853,0.00958738,0.35260254,-0.3291667
825,1778230632470,0.029238058,0.06750623520000001,1.16839964,-0.06338324,-0.06764429,-0.3637878
826,1778230632480,0.07199689,0.035876416,1.291795,-0.0053263223,-0.8255799400000001,-0.25406557
827,1778230632490,0.17132819,0.0021965152,1.2737348,0.025743887950000002,-1.2015295733333333,-0.26027959500000003
828,1778230632500,0.193635018,-0.00019524580800000003,1.1930006,-0.0142745434,-1.8298047199999998,-0.304026482
829,1778230632510,0.22580175200000002,-0.011177822,1.1368674520000002,-0.1097222398,-2.45468888,-0.38626488600000003
830,1778230632520,0.29433304,-0.044174362,0.9740324599999999,-0.21198763,-2.847452,-0.48149952
831,1778230632530,0.267145064,-0.0368526446,0.9562162879999999,-0.267807486,-2.80526752,-0.446558848
832,1778230632540,0.11592719,-0.005857374000000001,0.8319912,-0.28176245,-2.7947214,-0.43782368
833,1778230632550,0.11592719,-0.005857374,0.8319912,-0.256089584,-2.5791118,-0.340884628
834,1778230632560,0.11592719,-0.005857374,0.8319912,-0.18375812,-2.2887206,-0.28229508
835,1778230632570,0.46663743,0.06369894,0.75486904,-0.0819188376,-1.7011207599999998,-0.35686359199999995
836,1778230632580,0.46663743,0.06369894,0.75486904,-0.056459017,-1.5542208,-0.37550572
837,1778230632590,0.33997175,0.11592719,0.68409246,-0.1274056302,-1.34436372,-0.314785644
838,1778230632600,0.34582912400000004,0.09249769399999999,0.7953825840000001,-0.082025364,-0.5080246199999999,-0.20165456399999998
839,1778230632610,0.45101779999999997,0.11861181000000001,0.76341105,0.01917476,-0.1603223,-0.18695392
840,1778230632620,0.24552159,0.084931925,0.63967407,0.08362326,-0.0037284256000000003,0.01438107
841,1778230632630,0.286035096,0.0907892988,0.6642750279999999,0.0957672744,0.19984360975999998,0.05592638400000001
842,1778230632640,0.450627304,0.026553428959999997,0.9872115319999999,0.2802710888,0.70200926,0.120268364
843,1778230632650,0.49187298,-0.01034802784,1.03655992,0.33300167599999997,0.5596899320000001,-0.056245957999999985
844,1778230632660,0.52203846,0.04271002,0.89032084,0.290391096,0.377529716,-0.199630558
845,1778230632670,0.38536638,0.016595893,0.8268659,0.21784659,0.33822146,-0.22903186
846,1778230632680,0.37418856,0.0169375732,0.79264908,-0.0219444472,0.058163438,-0.248313142
847,1778230632690,0.13349932,-0.07028849,0.5708499,-0.42290998,0.25033715,-0.12250541
848,1778230632700,0.08094565666666666,-0.10315486666666666,0.7330665999999999,-0.42956788833333337,0.3684039416666667,-0.003994740833333332
849,1778230632710,0.279445568,-0.0413921106,1.00995774,-0.335025668,0.370605496,0.0928910592
850,1778230632720,0.591741226,0.050763907799999994,1.22541144,-0.2711098,0.35633096,0.14168017
851,1778230632730,0.4742032,0.09176553,1.21028,-0.1537176584,0.12474246999999998,-0.003834949999999998
852,1778230632740,0.5006590320000001,0.1323766556,1.0664813599999998,-0.0030892666,-0.38466699,-0.141467112
853,1778230632750,0.483965538,0.158246726,0.990677148,-0.045806371,-0.489595544,-0.15904398199999997
854,1778230632760,0.38224247800000005,0.0891297084,0.9557281639999999,-0.022370555,-0.660464,-0.18162759
855,1778230632770,0.3116611,0.008297946,0.9279056000000001,0.024927189199999998,-0.507385434,-0.13369069100000003
856,1778230632780,0.39854547,0.02391761,0.9188756,0.11611383,-0.29348037,-0.105993815
857,1778230632790,0.39854547,0.02391761,0.9188756,0.11611383,-0.29348037,-0.105993815
858,1778230632800,0.39854547,0.02391761,0.9188756,0.11611383,-0.29348037,-0.105993815
859,1778230632810,0.39781331999999997,0.02318543975,0.8582883275000001,0.2555303025,0.27177558,-0.10159959875
860,1778230632820,0.34690296200000004,0.0412944856,0.846488154,0.382962582,0.859668452,-0.039947421999999996
861,1778230632830,0.2829436833333333,0.06935293333333332,0.8949985666666667,0.48309743,1.3092101,0.06231797
862,1778230632840,0.2882316,0.06223460000000001,0.9440134,0.602193988,1.63422226,0.138910486
863,1778230632850,0.35022214,0.041245673,1.01479,0.72491246,1.8817897,0.16831179
864,1778230632860,0.404354056,0.037047892799999996,0.9917998800000001,0.8751147400000001,2.1379857,0.15765914
865,1778230632870,0.40708748,0.06613952,0.626495,0.8453760983333334,2.0465506166666665,0.10217661833333334
866,1778230632880,0.40708748000000006,0.06613952,0.626495,0.83942837,2.0282636,0.091080114
867,1778230632890,0.40708748,0.06613952,0.626495,0.83942837,2.0282636,0.091080114
868,1778230632900,0.40708748,0.06613952,0.626495,0.8394283699999999,2.0282636,0.091080114
869,1778230632910,0.40708748,0.06613952,0.626495,0.83942837,2.0282636,0.091080114
870,1778230632920,0.40708748000000006,0.06613952,0.626495,0.83942837,2.0282636,0.091080114
871,1778230632930,0.40708748000000006,0.06613952,0.626495,0.83942837,2.0282636,0.091080114
872,1778230632940,0.40708748000000006,0.06613952,0.626495,0.83942837,2.0282636,0.091080114
873,1778230632950,0.40708748000000006,0.06613952,0.626495,0.83942837,2.0282636,0.091080114
874,1778230632960,0.403084958,0.040562315599999996,0.9779862080000001,0.07510114100000001,-0.4146009220000001,-0.21315941880000003
875,1778230632970,0.334358428,0.114267605,0.988724714,-0.031105722000000002,-1.110644712,-0.349513268
876,1778230632980,0.345389816,0.103431462,0.981305364,-0.11121361,-1.38995704,-0.368901082
877,1778230632990,0.39874885666666665,0.0252192475,0.9326240933333333,-0.20186761,-1.4589684500000002,-0.5981459916666667
878,1778230633000,0.32166746,-0.031239327,0.9293700000000001,-0.172359786,-1.3564012600000002,-0.654178904
879,1778230633010,0.32166746,-0.031239327,0.9293700000000001,-0.10972224,-1.212271,-0.6775082
880,1778230633020,0.32166746,-0.031239327,0.92937,-0.10972224000000001,-1.212271,-0.6775082
881,1778230633030,0.32166746,-0.031239327,0.9293700000000001,-0.10972224,-1.212271,-0.6775082
882,1778230633040,0.32166746,-0.031239327,0.9293700000000001,-0.10972224,-1.212271,-0.6775082
883,1778230633050,0.32166746,-0.031239327,0.9293700000000001,-0.10972224,-1.212271,-0.6775082
884,1778230633060,0.32166746,-0.031239327,0.9293700000000001,-0.10972224,-1.212271,-0.6775082
885,1778230633070,0.32166746,-0.031239327,0.9293700000000001,-0.10972224,-1.212271,-0.6775082
886,1778230633080,0.32166746,-0.031239327,0.9293700000000001,-0.10972224,-1.212271,-0.6775082
887,1778230633090,0.32166746,-0.031239327,0.9293700000000001,-0.10972224,-1.212271,-0.6775082
888,1778230633100,0.439547105,0.0909113225,0.9239397375,0.5527391,0.45353633250000003,-0.13262542625
889,1778230633110,0.46849226999999993,0.086689136,0.8136868700000001,0.637454262,0.84038716,-0.06093312799999999
890,1778230633120,0.4456485499999999,0.11324256000000002,0.76389915,0.46871635000000006,0.3435478,-0.03834952
891,1778230633130,0.43515408000000005,0.10933765,0.827354,0.29827404,-0.13315806,-0.035153728
892,1778230633140,0.43515408000000005,0.10933765,0.827354,0.29827404,-0.13315806,-0.035153728
893,1778230633150,0.43515408000000005,0.10933765,0.827354,0.29827404,-0.13315806,-0.035153728
894,1778230633160,0.43515408000000005,0.10933765,0.827354,0.29827404,-0.13315806,-0.035153728
895,1778230633170,0.43515408000000005,0.10933765,0.827354,0.29827404,-0.13315806,-0.035153728
896,1778230633180,0.43515408000000005,0.10933765,0.827354,0.29827404,-0.13315806,-0.035153728
897,1778230633190,0.449211776,0.10416363399999999,0.8309172520000001,0.27494475,-0.03600593999999999,-0.05795038640000001
898,1778230633200,0.494899284,0.11905112,0.829013666,0.18162759,0.35260254,-0.14913702
899,1778230633210,0.4802233066666666,0.15668476,0.8113276466666667,0.117356635,0.20612867633333334,-0.126766468
900,1778230633220,0.45321432,0.13179092,0.80368054,-0.0801078868,-0.18269284840000002,-0.045912898
901,1778230633230,0.45633824799999995,0.143700904,0.815590508,-0.11398329599999998,-0.24074976,-0.02876214
902,1778230633240,0.45711923,0.1466784,0.818568,-0.11398329599999998,-0.24074976,-0.02876214
903,1778230633250,0.45711923,0.1466784,0.818568,-0.11398329599999998,-0.13560816,0.003408845999999999
904,1778230633260,0.5223435625,0.0899961095,0.9472471875,-0.096406434,0.26658243000000004,0.1021322295
905,1778230633270,0.48411194999999996,0.0944501572,0.97095734,-0.09054748,0.26045716,0.092145376
906,1778230633280,0.44394013,0.10836142,0.95597225,-0.09054748,0.26045716,0.092145376
907,1778230633290,0.44394013,0.10836142,0.95597225,-0.09054748,0.26045716,0.092145376
908,1778230633300,0.415385425,0.105554758,0.9698835,-0.047670585,-0.030892669999999983,0.116113823
909,1778230633310,0.39595848,0.08322351959999999,0.960658108,0.0076699036,-0.354520004,0.13752564
910,1778230633320,0.43246946,0.07443746,0.9376679,0.041278998,-0.38322888,0.17736653
911,1778230633330,0.400839636,0.0577439432,0.8952995639999999,0.12879047,-0.323733864,0.367409704
912,1778230633340,0.36266908,0.035144243,0.8092938000000001,0.24852618999999998,-0.15552860200000002,0.6481068999999999
913,1778230633350,0.43124917,0.06980037,0.8175918,0.2533997775,-0.107325387,0.67164925
914,1778230633360,0.4737151233333334,0.05466882133333334,0.8688437999999999,0.251136095,-0.030093721500000004,0.7211840500000001
915,1778230633370,0.5891542,0.19036464,0.99453324,0.23542345,-0.3190467,0.68176925
916,1778230633380,0.5891542,0.19036464,0.99453324,0.23542345,-0.3190467,0.68176925
917,1778230633390,0.5299459320000001,0.21730857,0.899204452,0.203465514,-0.54488278,0.534336658
918,1778230633400,0.43251822000000006,0.165177938,0.9009617560000001,0.17971011,-0.7415306,0.441232542
919,1778230633410,0.428613316,0.12246792479999999,0.888173138,0.108976552,-0.835699964,0.417264096
920,1778230633420,0.37804466,0.051007964,0.9801339500000001,0.10088054799999999,-1.027873636,0.46211172199999995
921,1778230633430,0.675599252,0.07053254480000001,0.8008982299999999,0.12165320400000001,-1.0862500999999998,0.472764356
922,1778230633440,0.7197248,-0.019036464,0.70410514,0.022903185,-0.8016115,0.19600865
923,1778230633450,0.6824816680000001,-0.0180114238,0.718602146,0.11611383,-0.6215818,0.1454086
924,1778230633460,0.521306284,0.0012202861999999995,0.750524842,0.117072566,-0.45550707199999996,0.160322304
925,1778230633470,0.50871292,0.04910432,0.66925378,0.0958738,-0.1107875,0.20080236
926,1778230633480,0.50080548,0.102992156,0.71787,0.047404267,0.1107875,0.23808661
927,1778230633490,0.48274526,0.1261776,0.7787867,0.13582122,0.6641924,0.32490566
928,1778230633500,0.509982044,0.129984894,0.77790809,0.149456604,0.8150338399999999,0.33854103599999996
929,1778230633510,0.5263094833333333,0.12764193999999998,0.7813899750000001,0.15233282,0.9337042999999999,0.34221620999999997
930,1778230633520,0.51496079,0.116854612,0.771660198,0.146686912,1.09264172,0.337369256
931,1778230633530,0.5113487699999999,0.097818144,0.759359706,0.104608966,1.27469544,0.31190944
932,1778230633540,0.50778552,0.09020355399999999,0.77873788,0.0588025966,1.52567174,0.270683696
933,1778230633550,0.501537635,0.07919658,0.788854025,0.049002163,1.6650083,0.2444782
934,1778230633560,0.46951732,0.077219716,0.81949541,0.0379234138,1.7076189,0.23638218800000002
935,1778230633570,0.45467865,0.061258372,0.9452337,0.01091896075,1.827860625,0.225037115
936,1778230633580,0.48128092,0.046858992,1.0182068,0.07563378,1.780057,0.1736381
937,1778230633590,0.47815696799999996,0.0333870328,1.0519843199999999,0.077551254,1.6228238799999999,0.11899003999999999
938,1778230633600,0.41157815600000003,0.045833951,1.0752674199999999,0.063063658,1.3198626,0.0369646776
939,1778230633610,0.38365801,0.062234599,1.00722425,0.03355583066666667,1.0618911333333332,0.013138261666666666
940,1778230633620,0.2928687,0.047103047,0.9122860000000002,-0.10492854599999998,0.5475459,0.027696876
941,1778230633630,0.30224048400000003,0.038902727000000005,0.895104352,-0.1015197012,0.584617132,0.0796817832
942,1778230633640,0.332015466,0.0419290374,0.86942954,-0.09853695879999999,0.726403868,0.10972223880000001
943,1778230633650,0.371845626,0.0633084552,0.819349016,-0.0997087516,0.8428372599999999,0.1193096176
944,1778230633660,0.362961934,0.09962417800000001,0.80792708,-0.09800433,1.36151455,0.15371766
945,1778230633670,0.35868279333333336,0.10299216333333333,0.7966841666666666,-0.12135136916666667,1.6432592499999998,0.1558837
946,1778230633680,0.338214536,0.09820864,0.80270426,-0.14498249400000002,1.8443989000000003,0.150308812
947,1778230633690,0.31898282,0.09352274000000001,0.830136328,-0.15765914,2.03827696,0.14658039
948,1778230633700,0.254795762,0.045443458000000006,1.043100654,-0.15574166,2.26326084,0.15169365799999998
949,1778230633710,0.240542828,0.010103969220000002,1.2626546,-0.0411192062,2.07353722,0.14764565200000002
950,1778230633720,0.19597797,-0.009030119,1.4492118,0.10812434600000001,1.262871,0.13582122
951,1778230633730,0.055645052,-0.007565775,1.300093,0.11478224933333332,0.6254877833333333,0.197961645
952,1778230633740,0.0348513746,-0.008590815,1.18455628,0.09118664,0.21635521600000002,0.254278622
953,1778230633750,0.1984673606,0.011031386600000002,0.9860889439999999,0.005539374799999999,-0.46658580799999994,0.318194486
954,1778230633760,0.298286754,0.0436374354,0.9445991659999999,-0.0129962268,-0.55415054,0.293693414
955,1778230633770,0.328256984,0.06526091,0.9199493799999999,0.007456850999999999,-0.4250405,0.25885928
956,1778230633780,0.35241865999999994,0.0873725,0.8871481,0.026631612,-0.13528858,0.17736652
957,1778230633790,0.304046522,0.130912308,0.8994973999999999,0.0350472004,0.32107071600000003,0.0731836662
958,1778230633800,0.24586325599999997,0.144140212,0.9947286,0.045380265600000004,0.43643885200000004,0.025779399999999997
959,1778230633810,0.22287308,0.13755066999999999,1.01044588,0.039521311200000006,0.378701516,0.0083090622
960,1778230633820,0.222189724,0.134036246,1.001757412,-0.029933931199999996,0.0574177552,-0.0492152178
961,1778230633830,0.22980430000000002,0.09537757399999999,0.886074256,-0.07637946079999999,0.1603222996,-0.043888896
962,1778230633840,0.26748675000000005,0.059745213799999995,0.8774346120000001,-0.0696682938,0.51761202,-0.0322775134
963,1778230633850,0.3039326166666667,0.035306949000000004,0.9174925066666667,0.015357563666666666,1.0438703833333334,-0.04190040116666666
964,1778230633860,0.28593747199999997,0.026748676199999998,0.903841556,0.051239220200000005,1.34180716,-0.0591221748
965,1778230633870,0.24278816,0.022648513000000002,0.9051106839999999,0.05411543519999999,1.5198128,-0.049108690200000006
966,1778230633880,0.17742961999999998,0.025626011,0.99453324,0.04376461583333333,1.5641633,-0.04616145866666666
967,1778230633890,0.16512913999999998,0.0361692822,1.005467048,0.0369646774,1.4840199200000002,-0.054648067
968,1778230633900,0.14204131,0.04881145,0.9952655,0.01917476,1.3725933,-0.06551377
969,1778230633910,0.13940549200000002,0.0524723104,0.97535042,-0.00042610584000000036,1.3244433,-0.07105314599999998
970,1778230633920,0.13598869600000002,0.05422952400000001,0.9451849400000001,-0.01427454378,1.3158146800000001,-0.075420726
971,1778230633930,0.12861816799999998,0.048128090400000004,0.89993668,-0.045273739199999996,1.4759239000000002,-0.085647264
972,1778230633940,0.12661690399999997,0.046663745599999994,0.88090022,-0.0630636552,1.71795194,-0.0926780084
973,1778230633950,0.15253578,0.04368625,0.8410212400000001,-0.08042747,2.0948424,-0.10652645000000001
974,1778230633960,0.15761217200000002,0.038902726000000006,0.8320399439999999,-0.090654008,2.30384742,-0.126979526
975,1778230633970,0.135549392,-0.0028310647999999993,0.78830488,-0.1454086,2.8000476,-0.17417073
976,1778230633980,-0.33631086,-0.014643434,1.5841756,-0.6401174000000001,0.6286125520000001,0.018002969199999996
977,1778230633990,-0.39830141999999996,-0.065163285,0.9733003400000001,-0.70662542,-0.28407054,0.134933496
978,1778230634000,-0.174745,-0.08078295,1.142432,-0.37550572,0.2790993,0.41598576
979,1778230634010,-0.14484798000000002,-0.03843901705,0.8963002499999999,-0.6665004533333333,-0.036041429999999965,0.4761732
980,1778230634020,-0.29921418,0.18621568,1.3022895,-0.968858,-1.3070794,0.6514092
981,1778230634030,-0.28457075600000004,0.163176672,1.2007617400000001,-1.0641992,-1.7022926000000003,0.8133294
982,1778230634040,-0.153414388,0.117001048,0.9869675279999999,-1.0578075999999998,-1.55826884,0.9045160640000001
983,1778230634050,-0.024893839408000003,0.134426728,1.316493532,-0.8410263,-1.419465,0.97897804
984,1778230634060,0.20251870164799998,0.0054180696,0.9621712800000001,0.3685815,0.30040458,0.55074173
985,1778230634070,0.21891934999999998,0.010982575999999999,0.7343682500000001,0.12001979666666668,0.3665397633333334,0.48061182166666666
986,1778230634080,0.0656025884,0.026504616599999996,0.9402549199999999,0.006711166400000001,0.1081243516,0.405226612
987,1778230634090,0.05662127880000001,0.014594623000000001,1.03826832,0.020240024,-0.21624868999999997,0.2545982
988,1778230634100,0.11695222400000001,0.0009762288600000002,1.0326062200000001,-0.006178534,0.019387813999999996,0.044954159199999996
989,1778230634110,0.020256749679999998,0.0029774983599999997,1.0484212,0.0157659133,0.0045806376,0.00021305300000000002
990,1778230634120,0.0295309273,0.0037828872,0.9996585,-0.020772656,-0.028229509,-0.0026631611
991,1778230634130,0.04881145,-0.0026846298,0.99209267,-0.019441075999999998,-0.018464584,-0.0013315806
992,1778230634140,0.042954076,-0.0024405725,1.0269929,-0.00426105776,-0.012676647,0.0010652644600000001
993,1778230634150,0.045394647999999996,-0.00183042935,1.01186135,-0.0053263223,-0.004926848075,0.00119842255
994,1778230634160,0.04669628666666666,-0.0013829910666666668,1.0024244666666666,-0.0026631611333333334,-0.005858954366666666,0.0007101763
995,1778230634170,0.0478840304,-0.00048811449200000004,0.9955094800000002,-0.0027696876799999997,-0.0084155892,0.0005326322
996,1778230634180,0.0480304652,-0.000976228996,0.9948261200000001,-0.0063915868,-0.010972224,-0.00053263228
997,1778230634190,0.04783522,-0.0014643435,0.9959976000000001,-0.00958738,-0.013848438,-0.002130529
998,1778230634200,0.05037341399999999,-1.000000000341006e-11,0.9959488000000001,-0.00958738,-0.013848438,-0.002130529
999,1778230634210,0.05051985,-0.00073217176,0.9947773,-0.00958738,-0.013848438,-0.002130529
